#time,accel_x,accel_y,accel_z
30.736669,1184.329507,-1332.370696,-77528.864398
30.739176,3404.947333,-148.041188,-77835.302597
30.741682,740.205942,0.000000,-77069.207099
30.744188,1924.535449,-2368.659014,-77835.302597
30.746695,2368.659014,148.041188,-77222.426198
30.749201,1036.288319,-2368.659014,-77528.864398
30.751708,3849.070898,-1332.370696,-77222.426198
30.754214,2812.782580,-888.247130,-77375.645298
30.756720,1036.288319,444.123565,-77375.645298
30.759227,2516.700203,-2516.700203,-77988.521696
30.761733,2812.782580,-296.082377,-77375.645298
30.764240,1036.288319,-1776.494261,-77682.083497
30.766746,2812.782580,-1776.494261,-78448.178995
30.769253,1924.535449,296.082377,-77222.426198
30.771759,888.247130,-1628.453072,-77069.207099
30.774265,5477.523971,-1184.329507,-77222.426198
30.776772,1332.370696,-2812.782580,-77528.864398
30.779278,4441.235652,-4737.318029,-77682.083497
30.781785,3997.112087,-3701.029710,-76303.111601
30.784321,4293.194464,-6661.853478,-77835.302597
30.786857,4885.359217,-1924.535449,-77528.864398
30.789394,2516.700203,-2220.617826,-74924.139704
30.791930,5773.606348,-3256.906145,-77222.426198
30.794466,7550.100608,-3701.029710,-77988.521696
30.797003,6513.812290,-3108.864956,-79214.274493
30.799539,7402.059420,-4589.276840,-78141.740796
30.802075,7402.059420,-3849.070898,-76456.330700
30.804612,2072.576638,-1332.370696,-76609.549800
30.807148,-2072.576638,0.000000,-78448.178995
30.809684,-3404.947333,3701.029710,-78141.740796
30.812220,-3849.070898,2960.823768,-78141.740796
30.814757,444.123565,3701.029710,-76303.111601
30.817293,1480.411884,3849.070898,-75843.454302
30.819829,2664.741391,3849.070898,-76303.111601
30.822366,1776.494261,592.164754,-77375.645298
30.824902,148.041188,888.247130,-77682.083497
30.827438,1332.370696,-3997.112087,-78294.959896
30.829975,-1184.329507,-740.205942,-76609.549800
30.832511,-1628.453072,-444.123565,-76149.892501
30.835047,1628.453072,-1332.370696,-77375.645298
30.837584,1480.411884,-888.247130,-77528.864398
30.840120,-296.082377,1628.453072,-76762.768900
30.842656,2368.659014,-4589.276840,-78754.617194
30.845193,3108.864956,1924.535449,-77069.207099
30.847729,2220.617826,-1628.453072,-77988.521696
30.850265,4145.153275,2220.617826,-77222.426198
30.852802,-2220.617826,2664.741391,-76149.892501
30.855338,1628.453072,2516.700203,-77375.645298
30.857874,-1480.411884,2812.782580,-77375.645298
30.860411,-2072.576638,3404.947333,-76609.549800
30.862947,-2220.617826,1924.535449,-77988.521696
30.865483,-2072.576638,592.164754,-77682.083497
30.868020,-888.247130,296.082377,-77682.083497
30.870556,296.082377,296.082377,-77069.207099
30.873092,-2220.617826,888.247130,-77069.207099
30.875629,740.205942,1480.411884,-77528.864398
30.878165,1776.494261,-296.082377,-77069.207099
30.880701,2516.700203,-740.205942,-76762.768900
30.883238,-740.205942,3256.906145,-77222.426198
30.885789,444.123565,-444.123565,-78141.740796
30.888340,1036.288319,888.247130,-76762.768900
30.890891,2664.741391,-1628.453072,-77222.426198
30.893443,7846.182985,-4441.235652,-76915.987999
30.895994,5773.606348,-5625.565159,-77988.521696
30.898545,4293.194464,-4145.153275,-77222.426198
30.901096,3997.112087,-6957.935855,-78448.178995
30.903648,4441.235652,-5773.606348,-76456.330700
30.906199,3997.112087,-5625.565159,-77222.426198
30.908750,3108.864956,-2812.782580,-77375.645298
30.911301,3404.947333,-1184.329507,-77222.426198
30.913853,3849.070898,-444.123565,-77375.645298
30.916404,4885.359217,740.205942,-75230.577904
30.918955,5329.482782,-2812.782580,-78754.617194
30.921506,5625.565159,-2368.659014,-75843.454302
30.924058,5181.441594,-6069.688724,-78141.740796
30.926609,5033.400406,-5329.482782,-78141.740796
30.929160,3701.029710,-4293.194464,-77069.207099
30.931711,2220.617826,-2220.617826,-76456.330700
30.934263,2812.782580,-1776.494261,-76762.768900
30.936814,2812.782580,444.123565,-76915.987999
30.939365,1480.411884,-5921.647536,-78294.959896
30.941917,2220.617826,148.041188,-76609.549800
30.944468,296.082377,-2960.823768,-75690.235202
30.947019,3997.112087,-3108.864956,-77375.645298
30.949570,2812.782580,-5181.441594,-79367.493593
30.952122,3701.029710,-5181.441594,-77222.426198
30.954673,5181.441594,-5181.441594,-75843.454302
30.957224,6661.853478,-6069.688724,-76762.768900
30.959775,5921.647536,-5181.441594,-76456.330700
30.962327,7550.100608,-4441.235652,-77835.302597
30.964878,6217.729913,-2812.782580,-78754.617194
30.967429,7698.141797,-888.247130,-77988.521696
30.969980,4885.359217,-1184.329507,-76915.987999
30.972532,3701.029710,-1776.494261,-76149.892501
30.975083,1480.411884,-1184.329507,-76456.330700
30.977634,1184.329507,-592.164754,-77835.302597
30.980185,5033.400406,-4737.318029,-77988.521696
30.982737,3849.070898,-2664.741391,-77835.302597
30.985288,3701.029710,-3997.112087,-77835.302597
30.987727,740.205942,-148.041188,-76456.330700
30.990166,444.123565,-1332.370696,-77069.207099
30.992606,-2812.782580,4293.194464,-77375.645298
30.995045,-1628.453072,2812.782580,-77222.426198
30.997484,1332.370696,5477.523971,-76915.987999
30.999924,444.123565,3701.029710,-76456.330700
31.002363,592.164754,2812.782580,-77988.521696
31.004803,-740.205942,2220.617826,-77835.302597
31.007242,592.164754,0.000000,-76762.768900
31.009681,0.000000,-148.041188,-76762.768900
31.012121,592.164754,-1480.411884,-76762.768900
31.014560,148.041188,-444.123565,-77375.645298
31.016999,1036.288319,1480.411884,-77682.083497
31.019439,740.205942,-148.041188,-78601.398095
31.021878,-740.205942,1924.535449,-77528.864398
31.024318,1628.453072,3997.112087,-75843.454302
31.026757,3404.947333,4441.235652,-75843.454302
31.029196,-1332.370696,2220.617826,-77222.426198
31.031636,2220.617826,-4885.359217,-79520.712692
31.034075,5329.482782,2664.741391,-76609.549800
31.036515,-888.247130,444.123565,-76609.549800
31.038954,2368.659014,-296.082377,-77835.302597
31.041393,592.164754,2368.659014,-77988.521696
31.043833,1628.453072,296.082377,-77988.521696
31.046272,0.000000,1480.411884,-77682.083497
31.048712,-1036.288319,2960.823768,-77222.426198
31.051151,-296.082377,5181.441594,-76915.987999
31.053590,-1776.494261,3108.864956,-76609.549800
31.056030,-2960.823768,2812.782580,-76915.987999
31.058469,-2368.659014,-888.247130,-77375.645298
31.060909,-2368.659014,296.082377,-76915.987999
31.063348,-2220.617826,592.164754,-77375.645298
31.065787,1036.288319,592.164754,-78448.178995
31.068227,5477.523971,-1924.535449,-78141.740796
31.070666,3552.988522,2220.617826,-76149.892501
31.073105,-888.247130,3108.864956,-76456.330700
31.075545,-1184.329507,148.041188,-78141.740796
31.077984,1480.411884,592.164754,-77222.426198
31.080424,4737.318029,-1776.494261,-77682.083497
31.082863,7550.100608,-3849.070898,-77835.302597
31.085347,5625.565159,-4885.359217,-77375.645298
31.087830,4441.235652,-5477.523971,-78141.740796
31.090314,3701.029710,-5477.523971,-77988.521696
31.092798,4293.194464,-6365.771101,-77375.645298
31.095282,4737.318029,-5033.400406,-77682.083497
31.097765,3552.988522,-3108.864956,-77222.426198
31.100249,2368.659014,-740.205942,-77682.083497
31.102733,2664.741391,888.247130,-76609.549800
31.105217,6661.853478,-2368.659014,-78601.398095
31.107700,5477.523971,592.164754,-77069.207099
31.110184,4885.359217,-3404.947333,-76456.330700
31.112668,5625.565159,-5773.606348,-78754.617194
31.115151,1924.535449,-2664.741391,-76303.111601
31.117635,3256.906145,-7105.977043,-77375.645298
31.120119,5181.441594,-3404.947333,-78907.836294
31.122603,2516.700203,148.041188,-78141.740796
31.125086,4145.153275,-1036.288319,-77988.521696
31.127570,3256.906145,888.247130,-76149.892501
31.130054,3256.906145,-740.205942,-75996.673402
31.132538,3849.070898,-888.247130,-76456.330700
31.135021,1036.288319,-3256.906145,-76149.892501
31.137505,5033.400406,-5329.482782,-79061.055394
31.139989,5773.606348,-6513.812290,-78141.740796
31.142472,6069.688724,-8734.430116,-76456.330700
31.144956,7105.977043,-5625.565159,-76915.987999
31.147440,7254.018232,-3849.070898,-77528.864398
31.149924,6513.812290,-1628.453072,-77988.521696
31.152407,6661.853478,-148.041188,-78141.740796
31.154891,4441.235652,-444.123565,-77222.426198
31.157375,4441.235652,-2368.659014,-76762.768900
31.159859,444.123565,-444.123565,-75996.673402
31.162342,2072.576638,-3108.864956,-77682.083497
31.164826,5033.400406,-5033.400406,-78448.178995
31.167310,4293.194464,-1332.370696,-77528.864398
31.169793,1184.329507,-3256.906145,-77069.207099
31.172277,1184.329507,-1776.494261,-76762.768900
31.174761,-888.247130,444.123565,-76456.330700
31.177245,-1036.288319,4589.276840,-77069.207099
31.179728,-888.247130,5181.441594,-77682.083497
31.182212,444.123565,5181.441594,-76762.768900
31.184728,-1036.288319,4885.359217,-77222.426198
31.187244,0.000000,1628.453072,-78294.959896
31.189759,740.205942,1184.329507,-77528.864398
31.192275,296.082377,-592.164754,-77069.207099
31.194791,0.000000,-1480.411884,-77069.207099
31.197306,740.205942,-148.041188,-77375.645298
31.199822,740.205942,2220.617826,-76303.111601
31.202338,0.000000,888.247130,-76456.330700
31.204854,1184.329507,296.082377,-77835.302597
31.207369,-1184.329507,1332.370696,-76915.987999
31.209885,1628.453072,888.247130,-77375.645298
31.212401,2516.700203,2812.782580,-77222.426198
31.214917,1776.494261,296.082377,-77835.302597
31.217432,1628.453072,-1332.370696,-76915.987999
31.219948,888.247130,-2072.576638,-77528.864398
31.222464,888.247130,1480.411884,-76456.330700
31.224980,1332.370696,148.041188,-77835.302597
31.227495,148.041188,1924.535449,-77528.864398
31.230011,296.082377,3404.947333,-76762.768900
31.232527,-888.247130,5181.441594,-76609.549800
31.235043,-1628.453072,3701.029710,-76915.987999
31.237558,-1332.370696,2220.617826,-77835.302597
31.240074,-2072.576638,592.164754,-76762.768900
31.242590,-2664.741391,0.000000,-77375.645298
31.245105,-2664.741391,1332.370696,-77375.645298
31.247621,-1332.370696,2516.700203,-77069.207099
31.250137,3849.070898,-592.164754,-77375.645298
31.252653,6365.771101,-1480.411884,-76915.987999
31.255168,1332.370696,4589.276840,-75537.016103
31.257684,-1628.453072,740.205942,-77222.426198
31.260200,1628.453072,296.082377,-78141.740796
31.262716,1628.453072,-888.247130,-77528.864398
31.265231,6513.812290,296.082377,-76456.330700
31.267747,6957.935855,-5477.523971,-77528.864398
31.270263,5921.647536,-4293.194464,-78141.740796
31.272779,2072.576638,-6217.729913,-78448.178995
31.275294,4737.318029,-5181.441594,-77528.864398
31.277810,4293.194464,-6513.812290,-76915.987999
31.280326,5181.441594,-4589.276840,-77835.302597
31.282841,3849.070898,-1776.494261,-76456.330700
31.285379,3997.112087,-592.164754,-77069.207099
31.287917,5921.647536,-740.205942,-77222.426198
31.290455,5921.647536,-1628.453072,-77835.302597
31.292993,4145.153275,-1924.535449,-76609.549800
31.295531,3552.988522,-5033.400406,-76456.330700
31.298069,2812.782580,-6809.894666,-77375.645298
31.300607,3849.070898,-7994.224174,-78141.740796
31.303145,5181.441594,-296.082377,-77222.426198
31.305683,4293.194464,-296.082377,-77069.207099
31.308221,3997.112087,148.041188,-77682.083497
31.310759,5181.441594,-1332.370696,-76609.549800
31.313297,1776.494261,888.247130,-75690.235202
31.315835,1184.329507,-2368.659014,-77988.521696
31.318373,5033.400406,-4885.359217,-79061.055394
31.320911,4885.359217,-4441.235652,-77835.302597
31.323449,6957.935855,-8734.430116,-77528.864398
31.325987,5773.606348,-6513.812290,-76915.987999
31.328525,6069.688724,-5921.647536,-77222.426198
31.331063,7994.224174,-3404.947333,-77528.864398
31.333601,5773.606348,-1924.535449,-77988.521696
31.336139,6661.853478,-1036.288319,-77222.426198
31.338677,3256.906145,-1184.329507,-77222.426198
31.341215,444.123565,-148.041188,-76762.768900
31.343753,3552.988522,-2072.576638,-77682.083497
31.346291,4885.359217,-4293.194464,-77835.302597
31.348829,4441.235652,-1184.329507,-77069.207099
31.351367,0.000000,-2072.576638,-77835.302597
31.353905,592.164754,-2072.576638,-77375.645298
31.356443,-1628.453072,-888.247130,-77835.302597
31.358981,-888.247130,3701.029710,-77682.083497
31.361519,-888.247130,5033.400406,-76149.892501
31.364057,1036.288319,7402.059420,-76303.111601
31.366607,740.205942,5625.565159,-77069.207099
31.369157,-1776.494261,2664.741391,-77222.426198
31.371707,-740.205942,444.123565,-76609.549800
31.374258,-444.123565,-2368.659014,-78141.740796
31.376808,-296.082377,-592.164754,-78448.178995
31.379358,888.247130,-592.164754,-77835.302597
31.381908,1036.288319,1332.370696,-77375.645298
31.384458,-444.123565,296.082377,-76915.987999
31.387008,-1628.453072,2664.741391,-76149.892501
31.389559,-888.247130,2516.700203,-76609.549800
31.392109,-1332.370696,4145.153275,-76762.768900
31.394659,444.123565,-2072.576638,-77835.302597
31.397209,2072.576638,-592.164754,-77222.426198
31.399759,1776.494261,-2664.741391,-76456.330700
31.402310,2664.741391,148.041188,-77835.302597
31.404860,888.247130,-1924.535449,-77988.521696
31.407410,1776.494261,3552.988522,-76149.892501
31.409960,-592.164754,4145.153275,-76149.892501
31.412510,0.000000,5477.523971,-77069.207099
31.415060,-2812.782580,3849.070898,-77682.083497
31.417611,-1924.535449,2664.741391,-77988.521696
31.420161,-1924.535449,2220.617826,-76456.330700
31.422711,-4441.235652,1036.288319,-77222.426198
31.425261,-3256.906145,740.205942,-77988.521696
31.427811,296.082377,-1924.535449,-77988.521696
31.430362,3108.864956,-592.164754,-77069.207099
31.432912,3849.070898,-296.082377,-76762.768900
31.435462,-148.041188,2960.823768,-77222.426198
31.438012,592.164754,-296.082377,-77835.302597
31.440562,888.247130,1332.370696,-76456.330700
31.443112,3256.906145,-740.205942,-76609.549800
31.445663,8142.265362,-2368.659014,-77835.302597
31.448213,7402.059420,-4589.276840,-77222.426198
31.450763,5625.565159,-5477.523971,-77988.521696
31.453313,4145.153275,-6513.812290,-77528.864398
31.455863,5181.441594,-6809.894666,-76915.987999
31.458414,4441.235652,-5329.482782,-76915.987999
31.460964,4589.276840,-5033.400406,-77528.864398
31.463514,3849.070898,-592.164754,-77375.645298
31.466064,3849.070898,-888.247130,-77835.302597
31.468624,3701.029710,888.247130,-76149.892501
31.471184,4293.194464,-3552.988522,-78601.398095
31.473744,7994.224174,-3701.029710,-77835.302597
31.476304,4441.235652,-4737.318029,-77528.864398
31.478864,6069.688724,-4589.276840,-78601.398095
31.481423,1776.494261,-296.082377,-76762.768900
31.483983,3997.112087,-4589.276840,-77682.083497
31.486543,1184.329507,5329.482782,-75843.454302
31.489103,-296.082377,-5477.523971,-77069.207099
31.491663,4737.318029,-888.247130,-76149.892501
31.494223,1480.411884,-4737.318029,-76303.111601
31.496783,5477.523971,-2960.823768,-78141.740796
31.499343,4145.153275,-6365.771101,-78294.959896
31.501903,6957.935855,-3256.906145,-76149.892501
31.504463,5773.606348,-8142.265362,-76762.768900
31.507022,8586.388927,-6069.688724,-77222.426198
31.509582,6809.894666,-3997.112087,-76762.768900
31.512142,7550.100608,-2812.782580,-77682.083497
31.514702,5329.482782,-1332.370696,-77375.645298
31.517262,3552.988522,-740.205942,-77682.083497
31.519822,1036.288319,-592.164754,-76762.768900
31.522382,2960.823768,-3108.864956,-77222.426198
31.524942,4737.318029,-4293.194464,-76456.330700
31.527502,3701.029710,-444.123565,-76762.768900
31.530062,1332.370696,-2516.700203,-77988.521696
31.532621,1480.411884,2072.576638,-77069.207099
31.535181,-2368.659014,2072.576638,-78294.959896
31.537741,-888.247130,2812.782580,-77375.645298
31.540301,-888.247130,2664.741391,-77222.426198
31.542861,1332.370696,5477.523971,-75996.673402
31.545421,-592.164754,3552.988522,-78141.740796
31.547981,148.041188,2664.741391,-77682.083497
31.550541,-444.123565,0.000000,-77069.207099
31.553101,-740.205942,0.000000,-76762.768900
31.555660,-888.247130,-296.082377,-77069.207099
31.558220,444.123565,-740.205942,-77528.864398
31.560780,740.205942,2516.700203,-76149.892501
31.563340,-1184.329507,1924.535449,-77069.207099
31.565900,1480.411884,1776.494261,-77835.302597
31.568460,-1332.370696,3256.906145,-77375.645298
31.571025,2220.617826,-148.041188,-77375.645298
31.573590,1628.453072,-1036.288319,-77222.426198
31.576155,1628.453072,-2812.782580,-77069.207099
31.578719,2960.823768,1924.535449,-77682.083497
31.581284,1036.288319,1480.411884,-78294.959896
31.583849,2664.741391,2664.741391,-78448.178995
31.586414,-888.247130,1184.329507,-77528.864398
31.588979,-1628.453072,3404.947333,-76303.111601
31.591544,-2516.700203,4293.194464,-77069.207099
31.594109,-1924.535449,2664.741391,-78141.740796
31.596674,-2072.576638,1776.494261,-77835.302597
31.599239,-4145.153275,3997.112087,-76762.768900
31.601803,-3552.988522,2368.659014,-77528.864398
31.604368,-148.041188,148.041188,-78448.178995
31.606933,3701.029710,-1480.411884,-77375.645298
31.609498,1924.535449,148.041188,-76609.549800
31.612063,1480.411884,1776.494261,-77222.426198
31.614628,296.082377,592.164754,-77375.645298
31.617193,1776.494261,-740.205942,-77528.864398
31.619758,3997.112087,-148.041188,-76609.549800
31.622322,6513.812290,-7254.018232,-77375.645298
31.624887,7105.977043,-3997.112087,-76456.330700
31.627452,3701.029710,-5477.523971,-78448.178995
31.630017,5625.565159,-4885.359217,-78141.740796
31.632582,5773.606348,-6661.853478,-77375.645298
31.635147,4737.318029,-3849.070898,-77222.426198
31.637712,3256.906145,-4737.318029,-77835.302597
31.640277,3849.070898,-1480.411884,-77375.645298
31.642842,3849.070898,-1332.370696,-77835.302597
31.645406,5773.606348,296.082377,-78141.740796
31.647971,5921.647536,-5329.482782,-79673.931792
31.650536,6809.894666,-3404.947333,-76303.111601
31.653101,5329.482782,-1776.494261,-75690.235202
31.655666,2664.741391,-1036.288319,-75996.673402
31.658231,2368.659014,-2960.823768,-76915.987999
31.660796,2516.700203,-4589.276840,-79980.369991
31.663361,1480.411884,-3997.112087,-79061.055394
31.665925,1924.535449,-1924.535449,-76456.330700
31.668490,3997.112087,-2664.741391,-76456.330700
31.671055,5773.606348,0.000000,-74617.701505
31.673624,4885.359217,-5181.441594,-77835.302597
31.676193,6365.771101,-5329.482782,-77528.864398
31.678762,5773.606348,-6365.771101,-77222.426198
31.681331,6957.935855,-5773.606348,-76609.549800
31.683899,8734.430116,-5181.441594,-77375.645298
31.686468,9030.512492,-3108.864956,-76762.768900
31.689037,4737.318029,-444.123565,-77682.083497
31.691606,1776.494261,-1332.370696,-78448.178995
31.694175,888.247130,-444.123565,-78141.740796
31.696744,4589.276840,-3552.988522,-77528.864398
31.699313,5181.441594,-2812.782580,-76149.892501
31.701881,3404.947333,-2368.659014,-76762.768900
31.704450,2516.700203,-1184.329507,-77682.083497
31.707019,-2368.659014,-296.082377,-77375.645298
31.709588,-1924.535449,4589.276840,-77069.207099
31.712157,-888.247130,3849.070898,-77375.645298
31.714726,1332.370696,5329.482782,-76303.111601
31.717295,-444.123565,4145.153275,-76762.768900
31.719863,-148.041188,2516.700203,-77375.645298
31.722432,-148.041188,2220.617826,-76915.987999
31.725001,-592.164754,0.000000,-77835.302597
31.727570,296.082377,-592.164754,-76762.768900
31.730139,0.000000,-444.123565,-76762.768900
31.732708,1480.411884,-1184.329507,-78754.617194
31.735277,1184.329507,1776.494261,-76303.111601
31.737845,592.164754,1776.494261,-77222.426198
31.740414,148.041188,5033.400406,-76456.330700
31.742983,-3256.906145,592.164754,-76762.768900
31.745552,5033.400406,-3256.906145,-77835.302597
31.748121,1776.494261,444.123565,-77069.207099
31.750690,2516.700203,-1184.329507,-77375.645298
31.753259,2664.741391,5181.441594,-76915.987999
31.755827,296.082377,296.082377,-77835.302597
31.758396,1776.494261,5329.482782,-76456.330700
31.760965,-1332.370696,2516.700203,-77069.207099
31.763534,-1924.535449,5477.523971,-75843.454302
31.766103,-3552.988522,1628.453072,-77682.083497
31.768672,-3997.112087,3849.070898,-77682.083497
31.771241,-4885.359217,2072.576638,-77682.083497
31.773809,-1776.494261,1332.370696,-77835.302597
31.776381,3404.947333,-1332.370696,-77069.207099
31.778953,2516.700203,1332.370696,-75690.235202
31.781524,148.041188,-444.123565,-77375.645298
31.784096,1036.288319,296.082377,-78141.740796
31.786668,1628.453072,-2220.617826,-77988.521696
31.789239,4293.194464,-296.082377,-77069.207099
31.791811,6661.853478,-5921.647536,-77528.864398
31.794382,8142.265362,-3997.112087,-76149.892501
31.796954,4145.153275,-5477.523971,-77835.302597
31.799526,5625.565159,-5181.441594,-77682.083497
31.802097,3552.988522,-6069.688724,-77528.864398
31.804669,5625.565159,-5477.523971,-77222.426198
31.807241,4885.359217,-5329.482782,-77222.426198
31.809812,2960.823768,-1332.370696,-77375.645298
31.812384,5477.523971,-1628.453072,-76915.987999
31.814956,4293.194464,592.164754,-77222.426198
31.817527,3256.906145,-1776.494261,-77375.645298
31.820099,2368.659014,-2516.700203,-77069.207099
31.822670,3404.947333,-5033.400406,-77682.083497
31.825242,6069.688724,-6513.812290,-76762.768900
31.827814,4885.359217,-1924.535449,-77835.302597
31.830385,2812.782580,-1628.453072,-77375.645298
31.832957,2220.617826,1036.288319,-76456.330700
31.835529,1480.411884,-3849.070898,-77835.302597
31.838100,3108.864956,-2664.741391,-76303.111601
31.840672,2960.823768,-3256.906145,-75843.454302
31.843243,6365.771101,-5329.482782,-76915.987999
31.845815,4293.194464,-6217.729913,-77375.645298
31.848387,7994.224174,-7105.977043,-78294.959896
31.850958,7994.224174,-4441.235652,-77069.207099
31.853530,9622.677246,-4589.276840,-77375.645298
31.856102,7254.018232,-3108.864956,-77528.864398
31.858673,3404.947333,-3552.988522,-77528.864398
31.861245,1036.288319,-888.247130,-76915.987999
31.863817,3404.947333,-2516.700203,-78141.740796
31.866388,5329.482782,-3108.864956,-77375.645298
31.868960,3997.112087,-1924.535449,-76456.330700
31.871531,444.123565,1628.453072,-76915.987999
31.874103,740.205942,1776.494261,-76915.987999
31.876675,-592.164754,4737.318029,-77682.083497
31.879248,-3108.864956,1480.411884,-78448.178995
31.881822,740.205942,2960.823768,-76915.987999
31.884395,-148.041188,2664.741391,-76456.330700
31.886968,592.164754,4441.235652,-77375.645298
31.889542,1036.288319,2220.617826,-77835.302597
31.892115,444.123565,1332.370696,-77528.864398
31.894689,-148.041188,-888.247130,-77069.207099
31.897262,-2072.576638,-888.247130,-76762.768900
31.899835,1184.329507,148.041188,-76762.768900
31.902409,1332.370696,4145.153275,-75383.797003
31.904982,444.123565,-1332.370696,-78294.959896
31.907555,-888.247130,148.041188,-77988.521696
31.910129,-740.205942,2368.659014,-76303.111601
31.912702,1036.288319,-296.082377,-76762.768900
31.915276,4293.194464,-3701.029710,-77988.521696
31.917849,1184.329507,1184.329507,-77375.645298
31.920422,1776.494261,2664.741391,-77528.864398
31.922996,1480.411884,4293.194464,-77375.645298
31.925569,740.205942,1036.288319,-78141.740796
31.928143,-296.082377,4589.276840,-75843.454302
31.930716,-2220.617826,2960.823768,-76456.330700
31.933289,-2220.617826,3108.864956,-76762.768900
31.935863,-4293.194464,3404.947333,-77682.083497
31.938436,-5329.482782,5181.441594,-77069.207099
31.941010,-888.247130,740.205942,-77988.521696
31.943583,5033.400406,-1332.370696,-77069.207099
31.946156,1332.370696,592.164754,-76303.111601
31.948730,1480.411884,444.123565,-77988.521696
31.951303,-444.123565,148.041188,-77835.302597
31.953877,2812.782580,-1036.288319,-77069.207099
31.956450,3552.988522,-3108.864956,-77069.207099
31.959023,5625.565159,-5773.606348,-76762.768900
31.961597,5921.647536,-4441.235652,-75996.673402
31.964170,5181.441594,-6365.771101,-77222.426198
31.966744,5477.523971,-5329.482782,-77988.521696
31.969317,5033.400406,-6365.771101,-77682.083497
31.971890,4589.276840,-4737.318029,-76609.549800
31.974464,5033.400406,-5033.400406,-77835.302597
31.977037,5181.441594,-1332.370696,-77528.864398
31.979611,5033.400406,-888.247130,-77222.426198
31.982189,4589.276840,-444.123565,-75996.673402
31.984762,4589.276840,-4885.359217,-78754.617194
31.987335,3256.906145,-1184.329507,-76762.768900
31.989908,4293.194464,-2960.823768,-76609.549800
31.992481,5477.523971,-5477.523971,-78141.740796
31.995054,3404.947333,-3404.947333,-77375.645298
31.997627,1036.288319,-1924.535449,-78141.740796
32.000200,2664.741391,-2220.617826,-77528.864398
32.002774,5181.441594,-1924.535449,-77222.426198
32.005347,4737.318029,-2960.823768,-77069.207099
32.007920,5773.606348,-4885.359217,-77375.645298
32.010493,3552.988522,-3404.947333,-77222.426198
32.013066,5329.482782,-7402.059420,-78601.398095
32.015639,7994.224174,-3256.906145,-76762.768900
32.018212,8586.388927,-5181.441594,-76456.330700
32.020785,9474.636058,-5033.400406,-77069.207099
32.023358,3701.029710,-4293.194464,-77375.645298
32.025931,1184.329507,-1036.288319,-77069.207099
32.028505,3256.906145,-3256.906145,-78141.740796
32.031078,4441.235652,-1332.370696,-77375.645298
32.033651,2812.782580,-1924.535449,-76915.987999
32.036224,-592.164754,-148.041188,-76303.111601
32.038797,1628.453072,0.000000,-77528.864398
32.041370,-1924.535449,2664.741391,-76915.987999
32.043943,-296.082377,2812.782580,-78294.959896
32.046516,444.123565,3997.112087,-77835.302597
32.049089,1332.370696,2960.823768,-76456.330700
32.051662,-1480.411884,3849.070898,-77682.083497
32.054236,-148.041188,1628.453072,-77528.864398
32.056809,0.000000,1776.494261,-77375.645298
32.059382,148.041188,-592.164754,-77528.864398
32.061955,-888.247130,888.247130,-77375.645298
32.064528,-592.164754,888.247130,-76915.987999
32.067101,888.247130,296.082377,-77682.083497
32.069674,-444.123565,2516.700203,-76303.111601
32.072247,-296.082377,-148.041188,-77375.645298
32.074820,740.205942,2516.700203,-77682.083497
32.077393,1480.411884,-3849.070898,-77988.521696
32.079966,2812.782580,740.205942,-76915.987999
32.082540,2072.576638,0.000000,-77528.864398
32.085112,1480.411884,5625.565159,-75690.235202
32.087685,-444.123565,3849.070898,-76762.768900
32.090258,-444.123565,3404.947333,-77682.083497
32.092831,-1924.535449,888.247130,-77375.645298
32.095404,-2072.576638,4293.194464,-76456.330700
32.097976,-4589.276840,3256.906145,-76915.987999
32.100549,-5329.482782,4145.153275,-77682.083497
32.103122,-1924.535449,1924.535449,-77835.302597
32.105695,4441.235652,-1036.288319,-77069.207099
32.108267,0.000000,1776.494261,-75537.016103
32.110840,1776.494261,148.041188,-76915.987999
32.113413,-888.247130,0.000000,-77988.521696
32.115986,3404.947333,-1628.453072,-77222.426198
32.118559,1332.370696,-1036.288319,-77835.302597
32.121131,9474.636058,-4589.276840,-77682.083497
32.123704,6217.729913,-2516.700203,-76762.768900
32.126277,4737.318029,-7550.100608,-77069.207099
32.128850,5477.523971,-5033.400406,-77528.864398
32.131423,6069.688724,-6957.935855,-77528.864398
32.133995,4737.318029,-2220.617826,-76762.768900
32.136568,3997.112087,-5033.400406,-76609.549800
32.139141,4737.318029,-1480.411884,-76915.987999
32.141714,3404.947333,-3108.864956,-77375.645298
32.144286,6365.771101,-2072.576638,-78294.959896
32.146859,7698.141797,-2220.617826,-77528.864398
32.149432,6957.935855,-1184.329507,-77069.207099
32.152005,1924.535449,444.123565,-76303.111601
32.154578,3997.112087,-3404.947333,-76609.549800
32.157150,2960.823768,-888.247130,-78141.740796
32.159723,2516.700203,-2664.741391,-77069.207099
32.162296,2960.823768,-296.082377,-76456.330700
32.164869,2960.823768,-4441.235652,-77222.426198
32.167442,3997.112087,-1332.370696,-75996.673402
32.170014,5033.400406,-5329.482782,-78448.178995
32.172587,7550.100608,-5033.400406,-78294.959896
32.175160,7846.182985,-4737.318029,-78294.959896
32.177733,9918.759623,-6069.688724,-77988.521696
32.180305,8142.265362,-6217.729913,-76762.768900
32.182878,5181.441594,-4441.235652,-75843.454302
32.185451,1480.411884,-740.205942,-77375.645298
32.188022,3108.864956,-3997.112087,-78294.959896
32.190593,4293.194464,-1628.453072,-77375.645298
32.193164,2664.741391,-2516.700203,-77375.645298
32.195735,444.123565,3256.906145,-76609.549800
32.198306,2516.700203,-148.041188,-76915.987999
32.200877,-1924.535449,4145.153275,-77222.426198
32.203447,-3849.070898,2072.576638,-77069.207099
32.206018,-592.164754,5477.523971,-76456.330700
32.208589,888.247130,2664.741391,-78141.740796
32.211160,592.164754,4737.318029,-77528.864398
32.213731,-296.082377,740.205942,-77528.864398
32.216302,888.247130,2220.617826,-76762.768900
32.218873,-1628.453072,-1036.288319,-77682.083497
32.221444,0.000000,1332.370696,-76762.768900
32.224015,-1184.329507,1332.370696,-77222.426198
32.226586,2368.659014,1776.494261,-78141.740796
32.229157,740.205942,2960.823768,-76762.768900
32.231727,-296.082377,-1036.288319,-77222.426198
32.234298,1776.494261,3404.947333,-75996.673402
32.236869,740.205942,-2812.782580,-77528.864398
32.239440,2368.659014,888.247130,-75843.454302
32.242011,592.164754,1776.494261,-78141.740796
32.244582,2220.617826,-148.041188,-78754.617194
32.247153,-592.164754,2664.741391,-76762.768900
32.249724,-592.164754,888.247130,-76303.111601
32.252295,296.082377,3997.112087,-76456.330700
32.254866,-4441.235652,3256.906145,-77222.426198
32.257437,-6217.729913,5033.400406,-76915.987999
32.260007,-3404.947333,1036.288319,-79520.712692
32.262578,444.123565,888.247130,-78141.740796
32.265149,4885.359217,-740.205942,-76149.892501
32.267720,296.082377,296.082377,-75537.016103
32.270291,-592.164754,-2812.782580,-77682.083497
32.272862,3404.947333,888.247130,-77682.083497
32.275433,2664.741391,-2516.700203,-77528.864398
32.278004,8734.430116,-740.205942,-77375.645298
32.280575,6365.771101,-6069.688724,-77069.207099
32.283146,5773.606348,-3256.906145,-76609.549800
32.285717,3552.988522,-6809.894666,-77835.302597
32.288287,4737.318029,-5921.647536,-77528.864398
32.290857,5329.482782,-7254.018232,-77835.302597
32.293426,5329.482782,-3552.988522,-77069.207099
32.295995,5033.400406,-2960.823768,-76915.987999
32.298565,5625.565159,-1332.370696,-77682.083497
32.301134,3849.070898,-3701.029710,-77375.645298
32.303703,5033.400406,148.041188,-75996.673402
32.306273,4145.153275,-2220.617826,-77528.864398
32.308842,1036.288319,1332.370696,-76149.892501
32.311411,3849.070898,-4885.359217,-78294.959896
32.313981,4293.194464,1776.494261,-77222.426198
32.316550,1628.453072,-5921.647536,-78448.178995
32.319119,2812.782580,-1332.370696,-76456.330700
32.321688,1628.453072,-5477.523971,-76609.549800
32.324258,6069.688724,-4441.235652,-77835.302597
32.326827,5033.400406,-4885.359217,-77528.864398
32.329396,6513.812290,-5625.565159,-78448.178995
32.331966,8882.471304,-3997.112087,-77528.864398
32.334535,9474.636058,-6513.812290,-78141.740796
32.337104,7105.977043,-4441.235652,-75843.454302
32.339674,4441.235652,-3849.070898,-76609.549800
32.342243,2812.782580,-2072.576638,-77375.645298
32.344812,4737.318029,-4589.276840,-78448.178995
32.347382,2812.782580,-1776.494261,-77835.302597
32.349951,1480.411884,-444.123565,-77375.645298
32.352520,1332.370696,296.082377,-78141.740796
32.355089,-1332.370696,1036.288319,-76609.549800
32.357659,-1332.370696,4885.359217,-77375.645298
32.360228,-148.041188,6365.771101,-77375.645298
32.362797,444.123565,4737.318029,-77528.864398
32.365367,888.247130,2960.823768,-77222.426198
32.367936,-1480.411884,3108.864956,-77222.426198
32.370505,-740.205942,-888.247130,-77375.645298
32.373075,-1184.329507,2072.576638,-77222.426198
32.375644,-1332.370696,-740.205942,-78141.740796
32.378213,740.205942,740.205942,-78754.617194
32.380783,0.000000,1332.370696,-77069.207099
32.383352,-148.041188,2072.576638,-77069.207099
32.385921,-444.123565,-1924.535449,-78448.178995
32.388491,888.247130,2664.741391,-77222.426198
32.391060,-148.041188,-5625.565159,-78601.398095
32.393628,3108.864956,1924.535449,-76303.111601
32.396196,1924.535449,148.041188,-78141.740796
32.398764,3849.070898,2812.782580,-78754.617194
32.401332,-1332.370696,2664.741391,-76456.330700
32.403900,-1332.370696,4589.276840,-75843.454302
32.406468,-2960.823768,1776.494261,-77528.864398
32.409036,-3849.070898,4441.235652,-77069.207099
32.411604,-5181.441594,4589.276840,-77069.207099
32.414172,-2664.741391,2960.823768,-77835.302597
32.416740,2072.576638,296.082377,-77682.083497
32.419308,888.247130,1628.453072,-76303.111601
32.421876,-1036.288319,-444.123565,-76149.892501
32.424444,444.123565,-2072.576638,-77682.083497
32.427012,2664.741391,-1480.411884,-76762.768900
32.429581,4885.359217,-3108.864956,-77988.521696
32.432149,8734.430116,-444.123565,-77222.426198
32.434717,5033.400406,-5329.482782,-77528.864398
32.437285,6217.729913,-4885.359217,-76762.768900
32.439853,3256.906145,-4737.318029,-76915.987999
32.442421,4589.276840,-7698.141797,-77528.864398
32.444989,4441.235652,-4885.359217,-76609.549800
32.447557,5773.606348,-4441.235652,-77835.302597
32.450125,5477.523971,-1480.411884,-77069.207099
32.452693,4145.153275,-2072.576638,-78141.740796
32.455261,4589.276840,-1184.329507,-76303.111601
32.457829,1628.453072,-3108.864956,-77375.645298
32.460397,1332.370696,-5477.523971,-77988.521696
32.462965,4737.318029,-3701.029710,-78448.178995
32.465533,6661.853478,-1628.453072,-77682.083497
32.468101,1332.370696,-3256.906145,-77375.645298
32.470669,3108.864956,-1480.411884,-77069.207099
32.473237,4589.276840,-3404.947333,-77988.521696
32.475805,3256.906145,-1480.411884,-76609.549800
32.478373,4737.318029,-3404.947333,-77682.083497
32.480941,4441.235652,-5921.647536,-77988.521696
32.483509,6809.894666,-5181.441594,-77528.864398
32.486078,9474.636058,-6513.812290,-77375.645298
32.488646,9770.718434,-5773.606348,-76762.768900
32.491214,7105.977043,-5625.565159,-76149.892501
32.493782,3701.029710,-2812.782580,-77528.864398
32.496349,4293.194464,-3404.947333,-77835.302597
32.498917,5033.400406,-2368.659014,-76762.768900
32.501485,1184.329507,-1036.288319,-77988.521696
32.504052,-1480.411884,1332.370696,-76915.987999
32.506620,148.041188,296.082377,-77069.207099
32.509188,-1628.453072,5921.647536,-75230.577904
32.511755,-3108.864956,5477.523971,-77069.207099
32.514323,1036.288319,3997.112087,-77835.302597
32.516891,1184.329507,2812.782580,-77069.207099
32.519458,740.205942,2960.823768,-77682.083497
32.522026,444.123565,1480.411884,-76762.768900
32.524594,-888.247130,1628.453072,-76762.768900
32.527161,-740.205942,-444.123565,-77528.864398
32.529729,-740.205942,1776.494261,-76915.987999
32.532297,-2072.576638,2072.576638,-76149.892501
32.534864,1480.411884,3404.947333,-76609.549800
32.537432,148.041188,0.000000,-77375.645298
32.540000,3108.864956,-888.247130,-77988.521696
32.542567,2220.617826,-444.123565,-77069.207099
32.545135,592.164754,-148.041188,-76456.330700
32.547703,3108.864956,888.247130,-78754.617194
32.550270,2220.617826,4589.276840,-76762.768900
32.552838,888.247130,2368.659014,-77069.207099
32.555406,-888.247130,4589.276840,-75996.673402
32.557973,-3701.029710,3701.029710,-76609.549800
32.560541,-5773.606348,4293.194464,-77069.207099
32.563109,-5625.565159,4441.235652,-77222.426198
32.565676,-1628.453072,3256.906145,-78601.398095
32.568244,1332.370696,-148.041188,-77988.521696
32.570812,592.164754,1332.370696,-76762.768900
32.573379,444.123565,-592.164754,-76915.987999
32.575947,2516.700203,-1332.370696,-77222.426198
32.578513,3701.029710,-148.041188,-76915.987999
32.581079,5921.647536,-1332.370696,-77528.864398
32.583645,6069.688724,-4885.359217,-78141.740796
32.586210,7402.059420,-6069.688724,-77835.302597
32.588776,3997.112087,-6661.853478,-77682.083497
32.591342,4885.359217,-6069.688724,-77375.645298
32.593908,5329.482782,-5625.565159,-76762.768900
32.596474,5033.400406,-3997.112087,-76762.768900
32.599039,5773.606348,-4589.276840,-78601.398095
32.601605,6365.771101,-740.205942,-76915.987999
32.604171,4293.194464,-592.164754,-76303.111601
32.606737,2812.782580,-1776.494261,-76762.768900
32.609303,2812.782580,-1184.329507,-75383.797003
32.611868,4293.194464,-3997.112087,-77375.645298
32.614434,4293.194464,1036.288319,-77375.645298
32.617000,1628.453072,-740.205942,-77835.302597
32.619566,3849.070898,-2812.782580,-78141.740796
32.622132,2220.617826,-1776.494261,-74924.139704
32.624697,2812.782580,-4737.318029,-77069.207099
32.627263,3997.112087,-4589.276840,-76915.987999
32.629829,6069.688724,-5033.400406,-77222.426198
32.632395,8586.388927,-5477.523971,-77375.645298
32.634961,8882.471304,-5773.606348,-77375.645298
32.637526,9326.594869,-7402.059420,-77375.645298
32.640092,5033.400406,-4589.276840,-76303.111601
32.642658,2960.823768,-3701.029710,-77069.207099
32.645224,5033.400406,-4293.194464,-77682.083497
32.647790,3404.947333,-1184.329507,-76915.987999
32.650355,1628.453072,-2072.576638,-77988.521696
32.652921,0.000000,2812.782580,-77069.207099
32.655487,-1184.329507,2812.782580,-76456.330700
32.658053,-1332.370696,3552.988522,-77069.207099
32.660619,-2072.576638,4293.194464,-77069.207099
32.663184,1480.411884,4441.235652,-77069.207099
32.665750,-888.247130,3256.906145,-77988.521696
32.668316,296.082377,2812.782580,-77682.083497
32.670882,-148.041188,1776.494261,-77375.645298
32.673448,-444.123565,1924.535449,-76456.330700
32.676013,-1036.288319,0.000000,-77222.426198
32.678579,444.123565,-1184.329507,-78448.178995
32.681144,-740.205942,444.123565,-77222.426198
32.683709,444.123565,2220.617826,-75843.454302
32.686273,740.205942,1332.370696,-77222.426198
32.688838,1184.329507,-1332.370696,-77682.083497
32.691403,4293.194464,-1036.288319,-77069.207099
32.693968,2664.741391,1776.494261,-77835.302597
32.696532,1924.535449,-592.164754,-78141.740796
32.699097,0.000000,2664.741391,-77528.864398
32.701662,-740.205942,2664.741391,-76609.549800
32.704227,-2220.617826,3552.988522,-76456.330700
32.706791,-4737.318029,4293.194464,-76762.768900
32.709356,-5625.565159,4145.153275,-78294.959896
32.711921,-4737.318029,5033.400406,-76915.987999
32.714486,2812.782580,1924.535449,-77375.645298
32.717050,592.164754,2664.741391,-77375.645298
32.719615,-148.041188,444.123565,-77375.645298
32.722180,2072.576638,-1480.411884,-76915.987999
32.724745,3552.988522,-1776.494261,-76149.892501
32.727309,3256.906145,-592.164754,-76915.987999
32.729874,6809.894666,-6661.853478,-78141.740796
32.732439,6957.935855,-4293.194464,-77682.083497
32.735004,5181.441594,-6513.812290,-77528.864398
32.737569,4589.276840,-5181.441594,-77375.645298
32.740133,4885.359217,-7254.018232,-76456.330700
32.742698,5033.400406,-3849.070898,-76762.768900
32.745263,5033.400406,-3997.112087,-77682.083497
32.747828,5773.606348,-1036.288319,-77988.521696
32.750392,5329.482782,-2072.576638,-77682.083497
32.752957,5773.606348,-1480.411884,-76149.892501
32.755522,4589.276840,-2812.782580,-76915.987999
32.758087,2960.823768,-3552.988522,-76456.330700
32.760651,2220.617826,-888.247130,-76915.987999
32.763216,1184.329507,-4441.235652,-79367.493593
32.765781,1480.411884,-3552.988522,-77528.864398
32.768346,2368.659014,-3849.070898,-76609.549800
32.770910,3997.112087,-1480.411884,-74924.139704
32.773475,5181.441594,-4293.194464,-77375.645298
32.776040,6217.729913,-5329.482782,-78448.178995
32.778605,9178.553681,-5181.441594,-77528.864398
32.781169,9326.594869,-5477.523971,-77222.426198
32.783732,8882.471304,-6513.812290,-76303.111601
32.786295,5181.441594,-4885.359217,-76456.330700
32.788857,4293.194464,-3404.947333,-77222.426198
32.791420,4737.318029,-3404.947333,-77375.645298
32.793983,3701.029710,-888.247130,-77835.302597
32.796546,-740.205942,-148.041188,-77375.645298
32.799108,-592.164754,592.164754,-78294.959896
32.801671,-1628.453072,-592.164754,-77988.521696
32.804234,-1332.370696,5625.565159,-75843.454302
32.806796,-888.247130,4589.276840,-77682.083497
32.809359,296.082377,3701.029710,-77528.864398
32.811922,740.205942,2960.823768,-77988.521696
32.814484,-444.123565,1776.494261,-77682.083497
32.817047,-592.164754,2072.576638,-76149.892501
32.819610,-740.205942,888.247130,-76149.892501
32.822173,-2072.576638,-740.205942,-78448.178995
32.824735,-1184.329507,740.205942,-78601.398095
32.827298,-1776.494261,2368.659014,-76609.549800
32.829861,3256.906145,-2072.576638,-78448.178995
32.832423,1184.329507,5921.647536,-75690.235202
32.834986,-1184.329507,-2812.782580,-78141.740796
32.837549,5773.606348,1924.535449,-76609.549800
32.840111,-740.205942,1332.370696,-75690.235202
32.842674,2516.700203,-444.123565,-78141.740796
32.845237,-1036.288319,3701.029710,-77835.302597
32.847800,0.000000,3552.988522,-76456.330700
32.850362,-3108.864956,6069.688724,-76303.111601
32.852925,-6809.894666,3108.864956,-76762.768900
32.855488,-5181.441594,5033.400406,-77988.521696
32.858050,888.247130,592.164754,-78601.398095
32.860613,-888.247130,2516.700203,-76456.330700
32.863176,1924.535449,-2220.617826,-78141.740796
32.865738,-740.205942,148.041188,-76915.987999
32.868301,3108.864956,-4293.194464,-75537.016103
32.870864,4737.318029,-1184.329507,-76762.768900
32.873426,9622.677246,-5181.441594,-78294.959896
32.875989,6217.729913,-2368.659014,-77528.864398
32.878552,5773.606348,-5477.523971,-76609.549800
32.881115,3849.070898,-4885.359217,-77375.645298
32.883677,4145.153275,-8882.471304,-76456.330700
32.886239,5477.523971,-4737.318029,-76915.987999
32.888800,5033.400406,-4589.276840,-77682.083497
32.891361,5181.441594,-2664.741391,-78141.740796
32.893923,5773.606348,-1036.288319,-76762.768900
32.896484,5477.523971,-2368.659014,-76149.892501
32.899045,3256.906145,-6957.935855,-78141.740796
32.901607,4737.318029,-5625.565159,-77682.083497
32.904168,2960.823768,-2072.576638,-76456.330700
32.906729,3552.988522,296.082377,-77682.083497
32.909290,2812.782580,-2220.617826,-78294.959896
32.911852,3997.112087,-3552.988522,-77682.083497
32.914413,3404.947333,-1924.535449,-75690.235202
32.916974,4589.276840,-5625.565159,-76456.330700
32.919536,6365.771101,-4441.235652,-77682.083497
32.922097,7254.018232,-6069.688724,-77988.521696
32.924658,11251.130318,-6217.729913,-77375.645298
32.927220,8586.388927,-6661.853478,-77069.207099
32.929781,4589.276840,-4145.153275,-75843.454302
32.932342,5625.565159,-3256.906145,-76915.987999
32.934904,2072.576638,-1480.411884,-76609.549800
32.937465,1628.453072,-296.082377,-77528.864398
32.940026,-740.205942,1036.288319,-78448.178995
32.942588,888.247130,1184.329507,-78141.740796
32.945149,-2516.700203,2516.700203,-76456.330700
32.947710,0.000000,3404.947333,-77835.302597
32.950272,0.000000,6513.812290,-76456.330700
32.952833,888.247130,4293.194464,-77375.645298
32.955394,-592.164754,3108.864956,-78601.398095
32.957956,0.000000,444.123565,-78141.740796
32.960517,-592.164754,592.164754,-75230.577904
32.963078,-1628.453072,-1332.370696,-77222.426198
32.965640,-740.205942,-1184.329507,-78754.617194
32.968201,0.000000,3108.864956,-76149.892501
32.970762,296.082377,6957.935855,-76609.549800
32.973324,1480.411884,148.041188,-77835.302597
32.975885,3849.070898,-444.123565,-78141.740796
32.978446,592.164754,740.205942,-76456.330700
32.981008,2516.700203,2516.700203,-77069.207099
32.983569,592.164754,3997.112087,-77222.426198
32.986130,-296.082377,1924.535449,-79061.055394
32.988684,-2960.823768,2516.700203,-77069.207099
32.991245,-3849.070898,4441.235652,-76303.111601
32.993806,-3997.112087,3849.070898,-76762.768900
32.996367,-2664.741391,3849.070898,-77835.302597
32.998927,-1480.411884,1628.453072,-77069.207099
33.001488,1184.329507,1924.535449,-77069.207099
33.004049,-2072.576638,2072.576638,-77222.426198
33.006609,2368.659014,-4441.235652,-78294.959896
33.009170,5033.400406,-1332.370696,-76609.549800
33.011731,4441.235652,-3701.029710,-76456.330700
33.014291,8438.347739,-4589.276840,-77988.521696
33.016852,6217.729913,-6069.688724,-77988.521696
33.019413,4885.359217,-4441.235652,-77375.645298
33.021974,4145.153275,-6957.935855,-77988.521696
33.024534,4441.235652,-5181.441594,-76609.549800
33.027095,5033.400406,-4589.276840,-76303.111601
33.029656,4589.276840,-1924.535449,-77069.207099
33.032216,7550.100608,-2220.617826,-77375.645298
33.034777,5477.523971,1924.535449,-75843.454302
33.037338,5033.400406,-4589.276840,-78141.740796
33.039898,4293.194464,-6069.688724,-77222.426198
33.042459,2516.700203,-1184.329507,-76149.892501
33.045020,4145.153275,-3108.864956,-78141.740796
33.047580,3552.988522,-592.164754,-78141.740796
33.050141,4293.194464,-4293.194464,-77835.302597
33.052702,2664.741391,-1184.329507,-76303.111601
33.055263,2516.700203,-5773.606348,-75537.016103
33.057823,5625.565159,-3849.070898,-77835.302597
33.060384,6809.894666,-6661.853478,-77375.645298
33.062945,10066.800811,-5329.482782,-76762.768900
33.065505,9178.553681,-6661.853478,-77988.521696
33.068066,7846.182985,-2812.782580,-77222.426198
33.070627,4293.194464,-2812.782580,-76609.549800
33.073187,3849.070898,-2812.782580,-76456.330700
33.075748,1924.535449,-148.041188,-77069.207099
33.078309,-1628.453072,-148.041188,-78448.178995
33.080869,740.205942,1628.453072,-77528.864398
33.083430,-1184.329507,592.164754,-77528.864398
33.085991,444.123565,6217.729913,-76303.111601
33.088552,-2072.576638,4293.194464,-75843.454302
33.091111,2368.659014,3552.988522,-78141.740796
33.093670,-148.041188,3552.988522,-77069.207099
33.096230,-1628.453072,1628.453072,-77069.207099
33.098789,-1776.494261,1036.288319,-76609.549800
33.101348,-2368.659014,888.247130,-76915.987999
33.103908,1184.329507,-2220.617826,-77682.083497
33.106467,-2072.576638,1776.494261,-76762.768900
33.109027,2220.617826,3108.864956,-76303.111601
33.111586,1480.411884,3849.070898,-78294.959896
33.114145,4885.359217,-1332.370696,-79214.274493
33.116705,2220.617826,1332.370696,-76762.768900
33.119264,1480.411884,1332.370696,-76915.987999
33.121823,2960.823768,6217.729913,-76915.987999
33.124383,-1332.370696,1776.494261,-78754.617194
33.126942,-1628.453072,4589.276840,-77835.302597
33.129501,-5033.400406,3552.988522,-76456.330700
33.132061,-3701.029710,4441.235652,-76456.330700
33.134620,-4737.318029,1480.411884,-77682.083497
33.137180,-296.082377,2516.700203,-77528.864398
33.139739,148.041188,2516.700203,-77835.302597
33.142298,444.123565,3552.988522,-77682.083497
33.144858,2220.617826,-2664.741391,-77222.426198
33.147417,3552.988522,-592.164754,-76149.892501
33.149976,5477.523971,-2220.617826,-76915.987999
33.152536,7846.182985,-6365.771101,-77988.521696
33.155095,7105.977043,-6069.688724,-78141.740796
33.157655,4589.276840,-5921.647536,-77528.864398
33.160214,4145.153275,-5773.606348,-77375.645298
33.162773,4885.359217,-7402.059420,-77375.645298
33.165333,6217.729913,-4589.276840,-76149.892501
33.167892,5181.441594,-1184.329507,-76762.768900
33.170451,6365.771101,-1036.288319,-77682.083497
33.173011,4885.359217,-740.205942,-77835.302597
33.175570,2812.782580,-4441.235652,-77988.521696
33.178129,6217.729913,-6513.812290,-77222.426198
33.180689,2664.741391,-1184.329507,-75843.454302
33.183248,1776.494261,-1036.288319,-75996.673402
33.185808,3849.070898,-592.164754,-77682.083497
33.188367,2368.659014,-2812.782580,-76609.549800
33.190926,4145.153275,-6809.894666,-78448.178995
33.193485,4145.153275,-4737.318029,-76609.549800
33.196044,6661.853478,-5625.565159,-76762.768900
33.198603,7994.224174,-5921.647536,-77682.083497
33.201162,9770.718434,-3404.947333,-76762.768900
33.203721,7846.182985,-5329.482782,-77222.426198
33.206279,4589.276840,-5033.400406,-77528.864398
33.208838,3997.112087,-5921.647536,-76609.549800
33.211397,3701.029710,-3701.029710,-77375.645298
33.213956,740.205942,0.000000,-78294.959896
33.216515,-1480.411884,888.247130,-78601.398095
33.219074,-740.205942,4145.153275,-77069.207099
33.221632,-3404.947333,5181.441594,-76762.768900
33.224191,-2368.659014,4145.153275,-76762.768900
33.226750,1184.329507,6069.688724,-76762.768900
33.229309,1332.370696,3404.947333,-76609.549800
33.231868,1332.370696,3701.029710,-77222.426198
33.234427,-1924.535449,1184.329507,-77528.864398
33.236985,-740.205942,444.123565,-76762.768900
33.239544,-1184.329507,-1776.494261,-77988.521696
33.242103,-444.123565,-1036.288319,-77682.083497
33.244662,-740.205942,3404.947333,-76303.111601
33.247221,-888.247130,1628.453072,-76303.111601
33.249780,2220.617826,1036.288319,-77222.426198
33.252338,2516.700203,-1332.370696,-78448.178995
33.254897,2812.782580,2220.617826,-76915.987999
33.257456,1924.535449,2664.741391,-76762.768900
33.260015,1036.288319,2368.659014,-78448.178995
33.262574,-1628.453072,4145.153275,-77528.864398
33.265133,-4737.318029,5625.565159,-75996.673402
33.267691,-4737.318029,4293.194464,-76915.987999
33.270250,-3552.988522,3849.070898,-77375.645298
33.272809,-1332.370696,1184.329507,-77682.083497
33.275368,444.123565,2812.782580,-76915.987999
33.277927,-1628.453072,2960.823768,-77528.864398
33.280486,1924.535449,-2664.741391,-78448.178995
33.283044,3256.906145,-3997.112087,-77375.645298
33.285603,6217.729913,-4293.194464,-76149.892501
33.288162,8438.347739,-7402.059420,-77375.645298
33.290721,7105.977043,-5181.441594,-77835.302597
33.293280,3849.070898,-5181.441594,-77222.426198
33.295838,5033.400406,-4885.359217,-77222.426198
33.298397,3997.112087,-6661.853478,-77528.864398
33.300956,4885.359217,-4885.359217,-76609.549800
33.303514,4589.276840,-1924.535449,-77222.426198
33.306073,8290.306550,-3849.070898,-78601.398095
33.308632,5329.482782,-1184.329507,-77069.207099
33.311191,5033.400406,-5921.647536,-77682.083497
33.313749,5773.606348,-5181.441594,-78294.959896
33.316308,2516.700203,-5181.441594,-77528.864398
33.318867,6217.729913,-3701.029710,-77682.083497
33.321425,2664.741391,-2220.617826,-77375.645298
33.323984,3997.112087,-3701.029710,-75383.797003
33.326543,3552.988522,-2072.576638,-76456.330700
33.329101,5625.565159,-7105.977043,-77682.083497
33.331660,6809.894666,-5033.400406,-78141.740796
33.334219,8438.347739,-7698.141797,-77375.645298
33.336777,10214.842000,-4441.235652,-77222.426198
33.339336,7105.977043,-4293.194464,-76762.768900
33.341895,6513.812290,-2664.741391,-77069.207099
33.344453,3256.906145,-5181.441594,-77375.645298
33.347012,1628.453072,1036.288319,-76609.549800
33.349571,-2072.576638,1332.370696,-77069.207099
33.352130,-2368.659014,2812.782580,-78141.740796
33.354688,-2072.576638,1036.288319,-77988.521696
33.357247,-2072.576638,5033.400406,-77375.645298
33.359806,148.041188,4441.235652,-76456.330700
33.362364,740.205942,5033.400406,-76149.892501
33.364923,2072.576638,4441.235652,-77835.302597
33.367482,-1628.453072,2516.700203,-78448.178995
33.370040,-1036.288319,444.123565,-76609.549800
33.372599,-3404.947333,-592.164754,-77222.426198
33.375158,-1332.370696,-2220.617826,-78141.740796
33.377716,888.247130,148.041188,-77682.083497
33.380275,740.205942,1332.370696,-78141.740796
33.382834,2368.659014,5329.482782,-77069.207099
33.385393,1332.370696,-444.123565,-77835.302597
33.387951,1924.535449,2812.782580,-76762.768900
33.390510,1184.329507,148.041188,-77988.521696
33.393069,444.123565,3404.947333,-77835.302597
33.395627,-1628.453072,3108.864956,-77069.207099
33.398185,-3256.906145,4293.194464,-76609.549800
33.400743,-4737.318029,3256.906145,-76915.987999
33.403300,-3997.112087,2960.823768,-77222.426198
33.405858,-1628.453072,-888.247130,-77375.645298
33.408416,296.082377,3404.947333,-78141.740796
33.410973,0.000000,1184.329507,-77222.426198
33.413531,4885.359217,1628.453072,-76303.111601
33.416088,4441.235652,-3701.029710,-76915.987999
33.418646,6661.853478,-1628.453072,-76762.768900
33.421204,6957.935855,-9326.594869,-78294.959896
33.423761,6809.894666,-5329.482782,-77682.083497
33.426319,3552.988522,-9030.512492,-78448.178995
33.428877,4145.153275,-5477.523971,-77528.864398
33.431434,5477.523971,-7402.059420,-77222.426198
33.433992,6513.812290,-3108.864956,-76915.987999
33.436550,6069.688724,-3256.906145,-77988.521696
33.439107,9326.594869,-1036.288319,-78448.178995
33.441665,3256.906145,-2220.617826,-77835.302597
33.444223,3997.112087,-5329.482782,-76762.768900
33.446780,3701.029710,-2220.617826,-77222.426198
33.449338,4441.235652,-2516.700203,-77375.645298
33.451896,4145.153275,888.247130,-77375.645298
33.454453,3404.947333,-5625.565159,-77835.302597
33.457011,5181.441594,-1332.370696,-76149.892501
33.459569,4293.194464,-5477.523971,-77069.207099
33.462126,5477.523971,-6809.894666,-76762.768900
33.464684,8142.265362,-8438.347739,-77222.426198
33.467241,11547.212695,-6513.812290,-77222.426198
33.469799,7994.224174,-3849.070898,-77069.207099
33.472357,7698.141797,-3552.988522,-76915.987999
33.474914,5477.523971,-7402.059420,-78448.178995
33.477472,1332.370696,-592.164754,-75230.577904
33.480030,-2220.617826,-2516.700203,-77375.645298
33.482587,444.123565,1332.370696,-77988.521696
33.485145,-3552.988522,1480.411884,-77069.207099
33.487703,-740.205942,5773.606348,-77528.864398
33.490260,-1184.329507,5625.565159,-77835.302597
33.492818,3108.864956,4885.359217,-77682.083497
33.495376,444.123565,5033.400406,-76915.987999
33.497933,444.123565,1628.453072,-77835.302597
33.500490,-2516.700203,2220.617826,-76915.987999
33.503048,-2220.617826,-444.123565,-77682.083497
33.505605,-2368.659014,-1776.494261,-77835.302597
33.508162,0.000000,1332.370696,-76303.111601
33.510719,740.205942,2220.617826,-76915.987999
33.513276,148.041188,1184.329507,-77682.083497
33.515833,3701.029710,148.041188,-78141.740796
33.518391,740.205942,-1036.288319,-77222.426198
33.520948,740.205942,1480.411884,-76456.330700
33.523505,-148.041188,3701.029710,-76915.987999
33.526062,-1332.370696,3701.029710,-78141.740796
33.528619,-3701.029710,5033.400406,-77528.864398
33.531176,-5625.565159,4885.359217,-76915.987999
33.533734,-4441.235652,2812.782580,-77069.207099
33.536291,-2072.576638,3108.864956,-77222.426198
33.538848,-592.164754,1628.453072,-77069.207099
33.541405,-1184.329507,1776.494261,-77682.083497
33.543962,3552.988522,-2516.700203,-77835.302597
33.546519,5477.523971,-1776.494261,-76609.549800
33.549077,5625.565159,-4145.153275,-76915.987999
33.551634,9178.553681,-7105.977043,-77222.426198
33.554191,6513.812290,-5477.523971,-77069.207099
33.556748,3997.112087,-6365.771101,-77682.083497
33.559305,3108.864956,-5477.523971,-77988.521696
33.561862,3997.112087,-6957.935855,-77222.426198
33.564420,5477.523971,-2812.782580,-76456.330700
33.566977,5625.565159,-4145.153275,-77375.645298
33.569534,4441.235652,148.041188,-76456.330700
33.572091,6069.688724,-3997.112087,-79673.931792
33.574648,5477.523971,-6513.812290,-78601.398095
33.577206,3552.988522,-2664.741391,-77375.645298
33.579763,2220.617826,-5625.565159,-76149.892501
33.582320,2960.823768,-740.205942,-76609.549800
33.584877,4293.194464,-6069.688724,-78294.959896
33.587434,5477.523971,-148.041188,-75843.454302
33.589991,3701.029710,-5625.565159,-76915.987999
33.592549,5773.606348,-3997.112087,-76609.549800
33.595106,8290.306550,-9326.594869,-78294.959896
33.597663,9622.677246,-6217.729913,-76609.549800
33.600220,7698.141797,-4293.194464,-77069.207099
33.602776,7402.059420,-5033.400406,-77682.083497
33.605332,5625.565159,-5921.647536,-77682.083497
33.607888,1332.370696,444.123565,-76609.549800
33.610444,-3256.906145,1628.453072,-76303.111601
33.613000,-2664.741391,2072.576638,-77988.521696
33.615556,-2960.823768,592.164754,-78448.178995
33.618112,-1036.288319,7105.977043,-76762.768900
33.620668,148.041188,6513.812290,-76609.549800
33.623224,2812.782580,3404.947333,-77375.645298
33.625780,1332.370696,4885.359217,-77528.864398
33.628336,-444.123565,2812.782580,-77528.864398
33.630892,-1332.370696,2220.617826,-76456.330700
33.633448,-3552.988522,888.247130,-75996.673402
33.636004,-3256.906145,1184.329507,-77069.207099
33.638560,1480.411884,-2664.741391,-78907.836294
33.641116,2516.700203,5921.647536,-76762.768900
33.643672,4293.194464,-1480.411884,-78448.178995
33.646228,5181.441594,2812.782580,-77375.645298
33.648784,592.164754,148.041188,-76456.330700
33.651340,296.082377,3108.864956,-77375.645298
33.653896,-2516.700203,4145.153275,-77835.302597
33.656452,-2516.700203,4589.276840,-77682.083497
33.659008,-5477.523971,5181.441594,-77222.426198
33.661564,-2516.700203,4293.194464,-76609.549800
33.664120,-1628.453072,2368.659014,-77069.207099
33.666676,-1776.494261,3404.947333,-77069.207099
33.669232,-2812.782580,2072.576638,-77222.426198
33.671788,2368.659014,-740.205942,-77375.645298
33.674343,3849.070898,-2368.659014,-76915.987999
33.676899,6809.894666,-3256.906145,-76303.111601
33.679455,9178.553681,-5773.606348,-77375.645298
33.682011,8586.388927,-6513.812290,-77682.083497
33.684567,5477.523971,-7994.224174,-78141.740796
33.687123,2960.823768,-5329.482782,-77835.302597
33.689679,3552.988522,-7846.182985,-77528.864398
33.692235,4145.153275,-3108.864956,-76149.892501
33.694791,6365.771101,-3997.112087,-77835.302597
33.697347,5921.647536,1924.535449,-76149.892501
33.699903,5921.647536,-2368.659014,-77988.521696
33.702459,6957.935855,-2220.617826,-79214.274493
33.705015,2664.741391,-3849.070898,-77988.521696
33.707570,3256.906145,-5033.400406,-77069.207099
33.710126,1332.370696,-888.247130,-76609.549800
33.712682,888.247130,-7402.059420,-78448.178995
33.715237,5477.523971,-2516.700203,-76609.549800
33.717793,4589.276840,-4293.194464,-77528.864398
33.720348,7994.224174,-5329.482782,-76915.987999
33.722904,7254.018232,-7698.141797,-78141.740796
33.725459,10658.965565,-6069.688724,-77375.645298
33.728015,7550.100608,-6217.729913,-77222.426198
33.730571,7254.018232,-5033.400406,-76456.330700
33.733126,6513.812290,-5329.482782,-77375.645298
33.735682,2368.659014,888.247130,-76149.892501
33.738237,-4293.194464,2664.741391,-77222.426198
33.740793,-1776.494261,3404.947333,-77835.302597
33.743348,-4441.235652,3849.070898,-77222.426198
33.745904,-148.041188,5033.400406,-77222.426198
33.748459,-148.041188,5329.482782,-77069.207099
33.751015,1924.535449,3404.947333,-76762.768900
33.753571,1332.370696,2812.782580,-77528.864398
33.756126,888.247130,1332.370696,-77528.864398
33.758682,-2072.576638,1036.288319,-77988.521696
33.761237,-1776.494261,-1628.453072,-78448.178995
33.763793,-2368.659014,-1332.370696,-76762.768900
33.766348,592.164754,-592.164754,-78448.178995
33.768904,3701.029710,6957.935855,-76609.549800
33.771460,148.041188,444.123565,-77528.864398
33.774015,3849.070898,888.247130,-76762.768900
33.776571,-296.082377,3256.906145,-74311.263306
33.779126,0.000000,3701.029710,-76762.768900
33.781682,-2220.617826,4589.276840,-79061.055394
33.784237,-3701.029710,4589.276840,-77988.521696
33.786793,-3997.112087,5181.441594,-76915.987999
33.789349,-4145.153275,3849.070898,-76149.892501
33.791904,-2220.617826,3552.988522,-77222.426198
33.794460,-1332.370696,1480.411884,-77988.521696
33.797015,444.123565,1184.329507,-76915.987999
33.799571,5033.400406,-2812.782580,-77069.207099
33.802126,7254.018232,-4293.194464,-76456.330700
33.804682,7402.059420,-5033.400406,-77835.302597
33.807238,9178.553681,-7402.059420,-77988.521696
33.809793,6513.812290,-5921.647536,-78141.740796
33.812349,4737.318029,-6365.771101,-77835.302597
33.814904,2664.741391,-6217.729913,-77222.426198
33.817460,3849.070898,-5033.400406,-75843.454302
33.820015,5329.482782,-4293.194464,-77069.207099
33.822571,7402.059420,-2960.823768,-77375.645298
33.825127,5181.441594,-1924.535449,-76915.987999
33.827682,5477.523971,-1480.411884,-76609.549800
33.830238,3256.906145,-1924.535449,-77835.302597
33.832793,3849.070898,-4293.194464,-77682.083497
33.835349,1924.535449,-1184.329507,-77222.426198
33.837904,2368.659014,-4589.276840,-78294.959896
33.840460,4441.235652,-3108.864956,-77069.207099
33.843016,5773.606348,-5477.523971,-77069.207099
33.845571,7550.100608,-5625.565159,-76609.549800
33.848127,6957.935855,-6069.688724,-76609.549800
33.850682,9326.594869,-7994.224174,-77375.645298
33.853238,7698.141797,-5329.482782,-76149.892501
33.855794,7846.182985,-6661.853478,-77835.302597
33.858349,6069.688724,-5033.400406,-77835.302597
33.860905,1036.288319,-1036.288319,-77222.426198
33.863460,-3404.947333,2220.617826,-77835.302597
33.866016,-1924.535449,4737.318029,-76303.111601
33.868571,-4589.276840,4145.153275,-76762.768900
33.871127,-1924.535449,4885.359217,-77682.083497
33.873683,-888.247130,5921.647536,-77222.426198
33.876238,2220.617826,5625.565159,-77069.207099
33.878794,888.247130,2220.617826,-77222.426198
33.881349,296.082377,888.247130,-77069.207099
33.883905,-740.205942,1628.453072,-76303.111601
33.886460,-2220.617826,-444.123565,-76456.330700
33.889015,-1036.288319,1480.411884,-77222.426198
33.891569,-2072.576638,-888.247130,-76915.987999
33.894124,5477.523971,3108.864956,-77528.864398
33.896678,-888.247130,1332.370696,-76762.768900
33.899233,2072.576638,148.041188,-77528.864398
33.901788,296.082377,6069.688724,-76149.892501
33.904342,0.000000,2516.700203,-78294.959896
33.906897,-2220.617826,5477.523971,-77988.521696
33.909451,-5477.523971,2072.576638,-78141.740796
33.912006,-3108.864956,5329.482782,-76149.892501
33.914560,-3404.947333,3256.906145,-76149.892501
33.917115,-3256.906145,3701.029710,-77682.083497
33.919669,-148.041188,1332.370696,-78294.959896
33.922224,1036.288319,-888.247130,-77682.083497
33.924778,5773.606348,-2072.576638,-76609.549800
33.927333,5921.647536,-3108.864956,-76303.111601
33.929887,10510.924376,-6809.894666,-76609.549800
33.932442,8734.430116,-6661.853478,-77222.426198
33.934996,4441.235652,-7698.141797,-77375.645298
33.937551,3701.029710,-4737.318029,-77069.207099
33.940105,2664.741391,-7254.018232,-77528.864398
33.942660,4885.359217,-3404.947333,-76149.892501
33.945214,5625.565159,-4293.194464,-78754.617194
33.947769,5329.482782,592.164754,-77222.426198
33.950323,4737.318029,-1480.411884,-77682.083497
33.952878,4145.153275,-4145.153275,-77988.521696
33.955432,3404.947333,-2812.782580,-77528.864398
33.957987,2664.741391,-1628.453072,-76762.768900
33.960541,1480.411884,-2072.576638,-77375.645298
33.963096,3404.947333,-4293.194464,-76915.987999
33.965650,5773.606348,-5773.606348,-76915.987999
33.968205,6809.894666,-5773.606348,-77069.207099
33.970759,7105.977043,-7254.018232,-77069.207099
33.973314,9918.759623,-6513.812290,-77222.426198
33.975868,7550.100608,-6513.812290,-77222.426198
33.978423,9178.553681,-4885.359217,-76456.330700
33.980977,7402.059420,-6069.688724,-78141.740796
33.983532,3108.864956,-1480.411884,-77222.426198
33.986086,-3997.112087,-148.041188,-77528.864398
33.988641,-2960.823768,2072.576638,-77222.426198
33.991184,-5773.606348,3404.947333,-77222.426198
33.993738,-2812.782580,4885.359217,-77375.645298
33.996293,444.123565,5921.647536,-77835.302597
33.998847,1776.494261,6809.894666,-76609.549800
34.001402,2516.700203,4441.235652,-77988.521696
34.003956,592.164754,592.164754,-77222.426198
34.006511,-1776.494261,148.041188,-77222.426198
34.009065,-4293.194464,-296.082377,-76456.330700
34.011620,-3256.906145,0.000000,-77375.645298
34.014174,-592.164754,-3108.864956,-78907.836294
34.016729,3701.029710,7254.018232,-75996.673402
34.019283,-296.082377,1480.411884,-77069.207099
34.021837,3108.864956,-1036.288319,-77222.426198
34.024392,-296.082377,5625.565159,-75996.673402
34.026946,296.082377,3552.988522,-77682.083497
34.029501,-2220.617826,4885.359217,-77988.521696
34.032055,-5625.565159,2812.782580,-79367.493593
34.034610,-2812.782580,5477.523971,-76609.549800
34.037164,-3997.112087,2960.823768,-76456.330700
34.039719,-2368.659014,4293.194464,-77222.426198
34.042273,-3552.988522,1628.453072,-78141.740796
34.044828,0.000000,1480.411884,-76915.987999
34.047382,7105.977043,-2516.700203,-76609.549800
34.049937,6217.729913,-1628.453072,-75843.454302
34.052491,9326.594869,-10066.800811,-77069.207099
34.055045,9622.677246,-8438.347739,-77988.521696
34.057600,5625.565159,-9178.553681,-77835.302597
34.060154,2516.700203,-5181.441594,-77375.645298
34.062709,2516.700203,-6809.894666,-77069.207099
34.065263,4293.194464,-3404.947333,-77375.645298
34.067818,5329.482782,-740.205942,-76762.768900
34.070372,4145.153275,-1480.411884,-77988.521696
34.072927,5625.565159,148.041188,-77222.426198
34.075481,296.082377,-2072.576638,-77069.207099
34.078036,2516.700203,-6809.894666,-79061.055394
34.080590,4589.276840,-1628.453072,-78294.959896
34.083144,2960.823768,-4441.235652,-77988.521696
34.085699,3997.112087,-3108.864956,-77375.645298
34.088253,4885.359217,-7254.018232,-76915.987999
34.090808,6513.812290,-4145.153275,-76915.987999
34.093361,8142.265362,-8438.347739,-77988.521696
34.095914,10510.924376,-6217.729913,-77069.207099
34.098468,7698.141797,-8734.430116,-78141.740796
34.101021,9622.677246,-5921.647536,-76149.892501
34.103574,5773.606348,-6069.688724,-77682.083497
34.106128,740.205942,444.123565,-76915.987999
34.108681,-4737.318029,592.164754,-78448.178995
34.111234,-2812.782580,5477.523971,-76303.111601
34.113788,-7105.977043,5329.482782,-76915.987999
34.116341,-1924.535449,6365.771101,-78141.740796
34.118894,-2072.576638,5625.565159,-77528.864398
34.121447,2072.576638,4589.276840,-77988.521696
34.124001,296.082377,1184.329507,-77988.521696
34.126554,888.247130,2368.659014,-77222.426198
34.129107,-2072.576638,148.041188,-76149.892501
34.131661,-4145.153275,-1480.411884,-76456.330700
34.134214,296.082377,-1924.535449,-77375.645298
34.136767,-1776.494261,4441.235652,-76456.330700
34.139320,2072.576638,-296.082377,-77375.645298
34.141874,1776.494261,2516.700203,-77682.083497
34.144427,296.082377,148.041188,-78754.617194
34.146980,2072.576638,4737.318029,-77682.083497
34.149534,-2368.659014,4441.235652,-77682.083497
34.152087,-3108.864956,5329.482782,-76762.768900
34.154640,-5477.523971,2960.823768,-77835.302597
34.157194,-2072.576638,2664.741391,-76915.987999
34.159747,-3997.112087,6661.853478,-76762.768900
34.162300,-3552.988522,2812.782580,-77988.521696
34.164853,-296.082377,2072.576638,-78141.740796
34.167407,4441.235652,-2516.700203,-77835.302597
34.169960,6513.812290,-3256.906145,-76456.330700
34.172513,9770.718434,-7550.100608,-77375.645298
34.175067,9918.759623,-7550.100608,-77222.426198
34.177620,7254.018232,-7994.224174,-78141.740796
34.180173,4737.318029,-8290.306550,-78907.836294
34.182727,2812.782580,-6661.853478,-77222.426198
34.185280,2368.659014,-4293.194464,-77069.207099
34.187833,4737.318029,-1480.411884,-75690.235202
34.190386,5033.400406,148.041188,-76149.892501
34.192940,6217.729913,1184.329507,-75537.016103
34.195454,2516.700203,-2368.659014,-76456.330700
34.197968,4589.276840,-4441.235652,-79673.931792
34.200483,740.205942,1036.288319,-75996.673402
34.202997,4885.359217,-4441.235652,-77528.864398
34.205511,3108.864956,-1924.535449,-75843.454302
34.208026,5329.482782,-8438.347739,-77528.864398
34.210540,6513.812290,-4737.318029,-76149.892501
34.213054,9178.553681,-9178.553681,-78141.740796
34.215569,9770.718434,-5033.400406,-76456.330700
34.218083,7994.224174,-8142.265362,-77988.521696
34.220597,8290.306550,-5033.400406,-76456.330700
34.223111,1924.535449,-3552.988522,-76762.768900
34.225626,-1184.329507,2516.700203,-75537.016103
34.228140,-2516.700203,1924.535449,-78448.178995
34.230654,-3256.906145,5625.565159,-78141.740796
34.233169,-3701.029710,5921.647536,-76456.330700
34.235683,-2516.700203,5625.565159,-76609.549800
34.238197,444.123565,6365.771101,-75996.673402
34.240712,296.082377,3849.070898,-77069.207099
34.243226,296.082377,888.247130,-77528.864398
34.245740,148.041188,296.082377,-76762.768900
34.248255,-740.205942,-888.247130,-77682.083497
34.250769,-592.164754,148.041188,-77222.426198
34.253283,-1184.329507,1480.411884,-77069.207099
34.255798,2664.741391,4589.276840,-75996.673402
34.258312,148.041188,1184.329507,-77069.207099
34.260826,1332.370696,592.164754,-76762.768900
34.263340,-148.041188,2960.823768,-77222.426198
34.265855,592.164754,2516.700203,-77835.302597
34.268369,-1776.494261,4737.318029,-77222.426198
34.270883,-5033.400406,1776.494261,-78448.178995
34.273398,-2664.741391,4885.359217,-76762.768900
34.275912,-5773.606348,3256.906145,-76149.892501
34.278426,-2368.659014,3404.947333,-77835.302597
34.280941,-444.123565,444.123565,-78448.178995
34.283455,3701.029710,1480.411884,-78141.740796
34.285969,6217.729913,-1924.535449,-76456.330700
34.288484,9918.759623,-2516.700203,-76609.549800
34.290998,8290.306550,-9918.759623,-77069.207099
34.293512,9178.553681,-9178.553681,-77682.083497
34.296035,3701.029710,-9474.636058,-77682.083497
34.298557,3701.029710,-7994.224174,-78754.617194
34.301080,4145.153275,-4441.235652,-76915.987999
34.303602,5033.400406,-4145.153275,-77528.864398
34.306125,4737.318029,-2516.700203,-77069.207099
34.308647,5625.565159,1332.370696,-75537.016103
34.311170,5625.565159,296.082377,-77682.083497
34.313692,2220.617826,-3552.988522,-79061.055394
34.316215,592.164754,-1332.370696,-77222.426198
34.318737,2960.823768,-3404.947333,-77375.645298
34.321260,4589.276840,-4737.318029,-77682.083497
34.323783,4885.359217,-6365.771101,-77069.207099
34.326305,6661.853478,-6217.729913,-77528.864398
34.328828,7550.100608,-6661.853478,-78294.959896
34.331350,9918.759623,-6513.812290,-77682.083497
34.333873,8290.306550,-7402.059420,-76915.987999
34.336395,9030.512492,-8438.347739,-77528.864398
34.338918,7846.182985,-6365.771101,-76915.987999
34.341440,-148.041188,1332.370696,-76303.111601
34.343963,-2812.782580,1776.494261,-78448.178995
34.346485,-3997.112087,6217.729913,-77835.302597
34.349008,-5181.441594,3849.070898,-78448.178995
34.351530,-2516.700203,6809.894666,-77222.426198
34.354053,-148.041188,5181.441594,-77069.207099
34.356575,1332.370696,4589.276840,-77375.645298
34.359098,1332.370696,296.082377,-78601.398095
34.361620,296.082377,1184.329507,-77375.645298
34.364143,-1036.288319,-1184.329507,-77069.207099
34.366665,-1184.329507,888.247130,-75690.235202
34.369188,-1332.370696,148.041188,-76456.330700
34.371711,444.123565,740.205942,-77222.426198
34.374233,2516.700203,1184.329507,-78294.959896
34.376756,1184.329507,0.000000,-78141.740796
34.379278,1036.288319,888.247130,-77222.426198
34.381801,-1332.370696,4441.235652,-77682.083497
34.384323,-2516.700203,4737.318029,-78141.740796
34.386846,-3849.070898,3256.906145,-78448.178995
34.389368,-1776.494261,3256.906145,-77375.645298
34.391891,-5181.441594,3108.864956,-76456.330700
34.394413,-3404.947333,5921.647536,-75843.454302
34.396943,-2812.782580,444.123565,-78754.617194
34.399473,3256.906145,296.082377,-77988.521696
34.402002,7698.141797,-2812.782580,-77222.426198
34.404532,10066.800811,-1332.370696,-76456.330700
34.407061,8882.471304,-9326.594869,-77069.207099
34.409591,8734.430116,-8734.430116,-77835.302597
34.412121,2368.659014,-8142.265362,-77069.207099
34.414650,3849.070898,-7402.059420,-77222.426198
34.417180,3256.906145,-4293.194464,-77528.864398
34.419710,5773.606348,-3256.906145,-77375.645298
34.422239,7994.224174,-2072.576638,-77222.426198
34.424769,7698.141797,-2960.823768,-77069.207099
34.427299,5773.606348,2368.659014,-77069.207099
34.429828,-740.205942,-444.123565,-75690.235202
34.432358,3404.947333,-3256.906145,-77988.521696
34.434887,0.000000,-1332.370696,-77222.426198
34.437417,2812.782580,-7846.182985,-77988.521696
34.439947,4885.359217,-5625.565159,-76915.987999
34.442476,7254.018232,-8586.388927,-77222.426198
34.445006,10510.924376,-5181.441594,-77069.207099
34.447536,8438.347739,-5477.523971,-77375.645298
34.450065,11399.171507,-6513.812290,-77988.521696
34.452595,8290.306550,-7698.141797,-78141.740796
34.455125,5033.400406,-4145.153275,-76915.987999
34.457654,-2368.659014,-2072.576638,-77682.083497
34.460184,-5625.565159,3404.947333,-76915.987999
34.462713,-4589.276840,2220.617826,-76915.987999
34.465243,-3849.070898,5329.482782,-76915.987999
34.467773,148.041188,9178.553681,-76609.549800
34.470302,2516.700203,6661.853478,-76609.549800
34.472832,2220.617826,4589.276840,-76915.987999
34.475362,444.123565,740.205942,-77682.083497
34.477891,-1628.453072,296.082377,-77069.207099
34.480421,-2664.741391,-592.164754,-77069.207099
34.482951,-3552.988522,-1628.453072,-77988.521696
34.485480,-444.123565,-296.082377,-77835.302597
34.488010,4441.235652,4737.318029,-76915.987999
34.490540,2072.576638,-1332.370696,-77528.864398
34.493069,3701.029710,2812.782580,-77835.302597
34.495599,0.000000,1036.288319,-78294.959896
34.498134,-1776.494261,7846.182985,-76762.768900
34.500669,-4885.359217,2960.823768,-78141.740796
34.503204,-2368.659014,5477.523971,-77528.864398
34.505739,-5477.523971,2664.741391,-76762.768900
34.508274,-3997.112087,5773.606348,-76149.892501
34.510809,-4737.318029,2960.823768,-77682.083497
34.513344,3404.947333,2960.823768,-78141.740796
34.515879,3849.070898,-3108.864956,-78294.959896
34.518414,7994.224174,-2516.700203,-76303.111601
34.520949,10362.883188,-9474.636058,-78141.740796
34.523484,8882.471304,-7698.141797,-77375.645298
34.526019,5033.400406,-9770.718434,-78448.178995
34.528554,4293.194464,-5181.441594,-77375.645298
34.531089,2960.823768,-6217.729913,-77069.207099
34.533624,4589.276840,-2072.576638,-77069.207099
34.536159,6069.688724,-3256.906145,-78754.617194
34.538694,8290.306550,-3552.988522,-78448.178995
34.541229,7254.018232,-148.041188,-76609.549800
34.543764,2516.700203,-6217.729913,-77375.645298
34.546299,4885.359217,-1776.494261,-76915.987999
34.548834,2516.700203,-2220.617826,-78294.959896
34.551369,4145.153275,-4293.194464,-76303.111601
34.553904,5625.565159,-5773.606348,-77375.645298
34.556439,6365.771101,-6957.935855,-76303.111601
34.558974,9770.718434,-5625.565159,-76303.111601
34.561509,7550.100608,-5625.565159,-76456.330700
34.564044,10807.006753,-5329.482782,-77375.645298
34.566579,8142.265362,-6513.812290,-77222.426198
34.569114,6957.935855,-4737.318029,-77528.864398
34.571649,-2516.700203,-2220.617826,-78294.959896
34.574184,-4145.153275,3997.112087,-76303.111601
34.576719,-6217.729913,2516.700203,-78601.398095
34.579254,-3701.029710,6957.935855,-77528.864398
34.581789,-1628.453072,8734.430116,-75690.235202
34.584324,888.247130,7846.182985,-76609.549800
34.586859,3552.988522,2072.576638,-77222.426198
34.589394,740.205942,296.082377,-77375.645298
34.591929,-1332.370696,-2072.576638,-77222.426198
34.594464,-888.247130,-1036.288319,-77988.521696
34.596999,-3701.029710,1332.370696,-76762.768900
34.599539,888.247130,-2072.576638,-78448.178995
34.602078,592.164754,4145.153275,-76762.768900
34.604618,296.082377,148.041188,-76149.892501
34.607158,444.123565,4589.276840,-76303.111601
34.609698,-1036.288319,1776.494261,-77988.521696
34.612238,-1036.288319,5773.606348,-77069.207099
34.614778,-5181.441594,3108.864956,-78141.740796
34.617318,-2516.700203,4885.359217,-77069.207099
34.619858,-5033.400406,3701.029710,-76456.330700
34.622398,-5625.565159,3997.112087,-77375.645298
34.624938,592.164754,2516.700203,-77835.302597
34.627478,3849.070898,-2812.782580,-78294.959896
34.630017,7698.141797,-1924.535449,-75996.673402
34.632557,9622.677246,-6365.771101,-76609.549800
34.635097,9474.636058,-7402.059420,-76762.768900
34.637637,6957.935855,-8734.430116,-77988.521696
34.640177,3849.070898,-7994.224174,-77835.302597
34.642717,2812.782580,-6957.935855,-77835.302597
34.645257,3108.864956,-3849.070898,-77375.645298
34.647797,4293.194464,-1924.535449,-77222.426198
34.650337,6809.894666,148.041188,-77988.521696
34.652877,7254.018232,296.082377,-77835.302597
34.655417,5329.482782,-888.247130,-77222.426198
34.657956,296.082377,-3701.029710,-78601.398095
34.660496,5181.441594,-148.041188,-77682.083497
34.663036,4885.359217,-3108.864956,-78448.178995
34.665576,4589.276840,-6365.771101,-78294.959896
34.668116,5625.565159,-7254.018232,-77375.645298
34.670656,9030.512492,-6217.729913,-75996.673402
34.673196,9030.512492,-5625.565159,-77222.426198
34.675736,8586.388927,-6069.688724,-77682.083497
34.678276,11547.212695,-7698.141797,-78141.740796
34.680816,5477.523971,-3701.029710,-77069.207099
34.683356,-2072.576638,-2960.823768,-76762.768900
34.685895,-3256.906145,3108.864956,-78141.740796
34.688435,-3701.029710,1036.288319,-77682.083497
34.690975,-3108.864956,8586.388927,-77528.864398
34.693515,-2072.576638,8734.430116,-76762.768900
34.696055,1184.329507,9474.636058,-76149.892501
34.698595,740.205942,3108.864956,-77069.207099
34.701139,1480.411884,1036.288319,-77528.864398
34.703684,-1184.329507,-3552.988522,-77069.207099
34.706228,-1036.288319,-148.041188,-77682.083497
34.708773,-296.082377,-148.041188,-78294.959896
34.711317,-1184.329507,3849.070898,-76762.768900
34.713862,444.123565,-3108.864956,-77222.426198
34.716406,1332.370696,4293.194464,-74311.263306
34.718951,-592.164754,-1776.494261,-79214.274493
34.721495,-1924.535449,4737.318029,-76915.987999
34.724040,-3256.906145,3997.112087,-76762.768900
34.726584,-2516.700203,5921.647536,-76762.768900
34.729129,-2664.741391,2220.617826,-77528.864398
34.731673,-6069.688724,5921.647536,-76762.768900
34.734218,-3997.112087,2220.617826,-77375.645298
34.736762,-1776.494261,1924.535449,-78448.178995
34.739307,4885.359217,-148.041188,-77375.645298
34.741851,7402.059420,-1628.453072,-77222.426198
34.744396,8734.430116,-6069.688724,-77835.302597
34.746940,10658.965565,-8586.388927,-77988.521696
34.749484,6957.935855,-8290.306550,-77682.083497
34.752029,2960.823768,-8882.471304,-77375.645298
34.754573,3256.906145,-6069.688724,-77528.864398
34.757118,3701.029710,-4145.153275,-76762.768900
34.759662,6365.771101,148.041188,-76762.768900
34.762207,6069.688724,-1924.535449,-78141.740796
34.764751,10214.842000,-3256.906145,-79061.055394
34.767296,2072.576638,148.041188,-76762.768900
34.769840,444.123565,-4293.194464,-77528.864398
34.772385,5477.523971,-3701.029710,-79673.931792
34.774929,2812.782580,-6365.771101,-78601.398095
34.777474,4737.318029,-5477.523971,-77682.083497
34.780018,5625.565159,-6365.771101,-76915.987999
34.782563,9622.677246,-6661.853478,-76762.768900
34.785107,9178.553681,-5773.606348,-77375.645298
34.787652,10214.842000,-6957.935855,-77835.302597
34.790196,9770.718434,-5773.606348,-76149.892501
34.792741,2812.782580,-3552.988522,-76303.111601
34.795285,-444.123565,-1184.329507,-77069.207099
34.797829,-3404.947333,4145.153275,-77682.083497
34.800374,-3997.112087,2960.823768,-77988.521696
34.802921,-3404.947333,5773.606348,-77222.426198
34.805468,-2220.617826,8734.430116,-77069.207099
34.808016,1776.494261,8882.471304,-76303.111601
34.810563,592.164754,3701.029710,-77682.083497
34.813110,2368.659014,888.247130,-76609.549800
34.815658,148.041188,-2812.782580,-76762.768900
34.818205,-740.205942,-1036.288319,-78141.740796
34.820752,-2812.782580,-3108.864956,-77835.302597
34.823299,-444.123565,2220.617826,-76915.987999
34.825847,0.000000,592.164754,-76609.549800
34.828394,1776.494261,592.164754,-77528.864398
34.830941,-592.164754,3256.906145,-75843.454302
34.833489,0.000000,6365.771101,-76456.330700
34.836036,-2220.617826,5477.523971,-77988.521696
34.838583,-3552.988522,4293.194464,-77528.864398
34.841130,-4441.235652,2960.823768,-77222.426198
34.843678,-6365.771101,4737.318029,-75843.454302
34.846225,-5033.400406,3849.070898,-77835.302597
34.848772,296.082377,2072.576638,-77988.521696
34.851319,5477.523971,-2220.617826,-77528.864398
34.853867,8586.388927,-2812.782580,-76762.768900
34.856414,12287.418637,-8586.388927,-76762.768900
34.858961,8586.388927,-9474.636058,-77528.864398
34.861509,6069.688724,-9474.636058,-77528.864398
34.864056,2516.700203,-6069.688724,-76762.768900
34.866603,2960.823768,-5181.441594,-77528.864398
34.869150,2960.823768,-740.205942,-77069.207099
34.871698,6069.688724,296.082377,-75996.673402
34.874245,7105.977043,-888.247130,-76915.987999
34.876792,5329.482782,-444.123565,-75537.016103
34.879339,3108.864956,-1924.535449,-77375.645298
34.881887,3108.864956,-1924.535449,-76762.768900
34.884434,2960.823768,-5033.400406,-77682.083497
34.886981,4293.194464,-2812.782580,-77222.426198
34.889529,6365.771101,-7254.018232,-77375.645298
34.892076,7254.018232,-6217.729913,-76762.768900
34.894623,8882.471304,-7105.977043,-77528.864398
34.897170,11251.130318,-5773.606348,-77835.302597
34.899718,12731.542202,-10658.965565,-79061.055394
34.902265,7550.100608,-5181.441594,-76609.549800
34.904815,-296.082377,-3552.988522,-77069.207099
34.907364,-3701.029710,3404.947333,-76456.330700
34.909914,-2664.741391,4145.153275,-77988.521696
34.912464,-4293.194464,10066.800811,-75996.673402
34.915014,-2368.659014,9178.553681,-76456.330700
34.917563,-1184.329507,8290.306550,-77528.864398
34.920113,888.247130,4293.194464,-77069.207099
34.922663,740.205942,1628.453072,-76762.768900
34.925213,444.123565,-2812.782580,-78141.740796
34.927762,888.247130,-888.247130,-77375.645298
34.930312,-2812.782580,-592.164754,-76609.549800
34.932862,-888.247130,-3256.906145,-77988.521696
34.935412,2220.617826,1924.535449,-77375.645298
34.937962,444.123565,740.205942,-77375.645298
34.940511,592.164754,2664.741391,-77375.645298
34.943061,-592.164754,5773.606348,-76762.768900
34.945611,-1332.370696,7254.018232,-77682.083497
34.948161,-3404.947333,4589.276840,-77682.083497
34.950710,-3404.947333,2368.659014,-78141.740796
34.953260,-7550.100608,4589.276840,-76149.892501
34.955810,-5921.647536,4145.153275,-77988.521696
34.958360,-1184.329507,1480.411884,-77835.302597
34.960909,6661.853478,-2516.700203,-77988.521696
34.963459,8142.265362,-3552.988522,-75843.454302
34.966009,12731.542202,-10066.800811,-78141.740796
34.968559,10807.006753,-8142.265362,-78141.740796
34.971108,7254.018232,-12435.459826,-78141.740796
34.973658,5033.400406,-6513.812290,-77835.302597
34.976208,1924.535449,-8290.306550,-77682.083497
34.978758,2516.700203,-1628.453072,-77222.426198
34.981307,2220.617826,-4885.359217,-79061.055394
34.983857,6513.812290,-296.082377,-77222.426198
34.986407,6217.729913,-3256.906145,-76456.330700
34.988957,1184.329507,0.000000,-76456.330700
34.991506,2960.823768,-6365.771101,-79673.931792
34.994056,4441.235652,-1628.453072,-77375.645298
34.996606,2072.576638,-6809.894666,-77375.645298
34.999156,6069.688724,-7254.018232,-76303.111601
35.001706,6217.729913,-7698.141797,-77375.645298
35.004255,8586.388927,-5625.565159,-76609.549800
35.006800,10510.924376,-6809.894666,-78294.959896
35.009352,11843.295072,-7846.182985,-77222.426198
35.011904,5921.647536,-4145.153275,-77835.302597
35.014456,-444.123565,-3404.947333,-77682.083497
35.017009,-3701.029710,3256.906145,-77528.864398
35.019561,-7105.977043,4589.276840,-76456.330700
35.022113,-4293.194464,10214.842000,-77222.426198
35.024665,-2516.700203,10807.006753,-76456.330700
35.027217,148.041188,10214.842000,-76149.892501
35.029769,296.082377,2516.700203,-77375.645298
35.032321,1332.370696,592.164754,-76303.111601
35.034873,592.164754,-3701.029710,-77682.083497
35.037425,-296.082377,-1332.370696,-78601.398095
35.039978,-296.082377,-1628.453072,-77988.521696
35.042530,1036.288319,-2072.576638,-78754.617194
35.045082,444.123565,2220.617826,-75843.454302
35.047634,296.082377,1332.370696,-77682.083497
35.050186,740.205942,3552.988522,-77069.207099
35.052738,-1628.453072,6661.853478,-77069.207099
35.055290,-3108.864956,5477.523971,-77222.426198
35.057842,-148.041188,3404.947333,-77988.521696
35.060394,-7402.059420,4441.235652,-76609.549800
35.062946,-7846.182985,4737.318029,-75537.016103
35.065499,-3108.864956,888.247130,-77682.083497
35.068051,5181.441594,-1924.535449,-78448.178995
35.070603,9030.512492,-4441.235652,-77835.302597
35.073155,11695.253884,-3404.947333,-76303.111601
35.075707,10214.842000,-9918.759623,-76762.768900
35.078259,9178.553681,-9770.718434,-76762.768900
35.080811,4145.153275,-11399.171507,-77835.302597
35.083363,2368.659014,-6365.771101,-77835.302597
35.085915,2516.700203,-2664.741391,-77528.864398
35.088434,3997.112087,592.164754,-77835.302597
35.090952,7105.977043,296.082377,-76915.987999
35.093470,5477.523971,-2072.576638,-76303.111601
35.095988,4441.235652,-2812.782580,-76456.330700
35.098506,2368.659014,-3997.112087,-79061.055394
35.101025,4145.153275,-3404.947333,-78754.617194
35.103543,5033.400406,-5329.482782,-78448.178995
35.106061,6513.812290,-7402.059420,-76609.549800
35.108579,8290.306550,-7846.182985,-77222.426198
35.111098,7105.977043,-5625.565159,-77528.864398
35.113616,10955.047942,-5921.647536,-77528.864398
35.116134,11251.130318,-7846.182985,-77988.521696
35.118652,7698.141797,-4737.318029,-76915.987999
35.121170,0.000000,-2220.617826,-77375.645298
35.123689,-4737.318029,3256.906145,-76303.111601
35.126207,-5181.441594,4441.235652,-77682.083497
35.128725,-5773.606348,9622.677246,-77375.645298
35.131243,-2812.782580,9622.677246,-76762.768900
35.133762,-1628.453072,11547.212695,-76149.892501
35.136280,592.164754,2812.782580,-77682.083497
35.138798,2516.700203,1480.411884,-77528.864398
35.141316,-444.123565,-4885.359217,-77375.645298
35.143834,1036.288319,1776.494261,-75996.673402
35.146353,-1036.288319,-148.041188,-77222.426198
35.148871,2812.782580,1036.288319,-77682.083497
35.151389,-740.205942,2368.659014,-76303.111601
35.153907,592.164754,1628.453072,-76762.768900
35.156426,296.082377,2516.700203,-77988.521696
35.158944,-296.082377,6217.729913,-77375.645298
35.161462,-2072.576638,6513.812290,-77682.083497
35.163980,-2072.576638,5329.482782,-77682.083497
35.166498,-6217.729913,4145.153275,-77988.521696
35.169017,-6809.894666,3256.906145,-77528.864398
35.171535,-3108.864956,740.205942,-77375.645298
35.174053,3701.029710,-740.205942,-77528.864398
35.176571,8438.347739,-6217.729913,-78448.178995
35.179090,12435.459826,-4441.235652,-76915.987999
35.181608,11103.089130,-9918.759623,-77528.864398
35.184126,10362.883188,-8438.347739,-77528.864398
35.186644,4441.235652,-10510.924376,-77069.207099
35.189171,3108.864956,-6217.729913,-77835.302597
35.191698,2220.617826,-1776.494261,-76915.987999
35.194225,2960.823768,2664.741391,-76609.549800
35.196752,7105.977043,-1776.494261,-78754.617194
35.199279,5625.565159,-148.041188,-77069.207099
35.201806,7105.977043,-2368.659014,-77528.864398
35.204333,5033.400406,-740.205942,-76915.987999
35.206860,5477.523971,-5181.441594,-77988.521696
35.209387,3701.029710,-5033.400406,-77375.645298
35.211914,5329.482782,-8734.430116,-77528.864398
35.214441,7402.059420,-7550.100608,-77835.302597
35.216968,7698.141797,-8290.306550,-77682.083497
35.219494,11695.253884,-4885.359217,-77835.302597
35.222021,12139.377449,-6957.935855,-77682.083497
35.224548,8438.347739,-2960.823768,-78294.959896
35.227075,-3701.029710,1776.494261,-76762.768900
35.229602,-4441.235652,2664.741391,-77835.302597
35.232129,-7550.100608,3108.864956,-77835.302597
35.234656,-5329.482782,9030.512492,-76609.549800
35.237183,-2368.659014,11103.089130,-76303.111601
35.239710,-148.041188,11251.130318,-75996.673402
35.242237,1184.329507,3552.988522,-77375.645298
35.244764,1776.494261,-592.164754,-77682.083497
35.247291,-740.205942,-1628.453072,-75690.235202
35.249818,-2812.782580,-888.247130,-77222.426198
35.252345,740.205942,-296.082377,-77835.302597
35.254872,2960.823768,2368.659014,-77069.207099
35.257398,-592.164754,1036.288319,-75996.673402
35.259925,1036.288319,1628.453072,-76915.987999
35.262452,-2516.700203,5329.482782,-77069.207099
35.264979,-1628.453072,5329.482782,-77988.521696
35.267506,-3997.112087,6957.935855,-77988.521696
35.270033,-3108.864956,4293.194464,-77069.207099
35.272560,-6069.688724,5033.400406,-76609.549800
35.275087,-7698.141797,2368.659014,-77222.426198
35.277614,-592.164754,1480.411884,-76762.768900
35.280141,7698.141797,-4145.153275,-79061.055394
35.282668,7846.182985,-2960.823768,-76609.549800
35.285195,14211.954086,-9918.759623,-77988.521696
35.287722,9622.677246,-8142.265362,-76762.768900
35.290256,6365.771101,-12731.542202,-77682.083497
35.292790,3404.947333,-7846.182985,-77835.302597
35.295325,1776.494261,-5329.482782,-76149.892501
35.297859,2664.741391,-444.123565,-77528.864398
35.300393,5625.565159,-2516.700203,-78601.398095
35.302928,4441.235652,1036.288319,-76609.549800
35.305462,2516.700203,-6513.812290,-77988.521696
35.307996,5033.400406,-1480.411884,-77835.302597
35.310531,3849.070898,-5329.482782,-78294.959896
35.313065,5329.482782,-5625.565159,-77835.302597
35.315599,4737.318029,-7402.059420,-77069.207099
35.318134,6809.894666,-6069.688724,-77222.426198
35.320668,6957.935855,-7994.224174,-77528.864398
35.323202,9178.553681,-4589.276840,-77375.645298
35.325737,12287.418637,-9622.677246,-78601.398095
35.328271,8882.471304,-3701.029710,-76456.330700
35.330805,-148.041188,-2368.659014,-77069.207099
35.333340,-3256.906145,4737.318029,-77222.426198
35.335874,-6513.812290,4441.235652,-77222.426198
35.338408,-5329.482782,10066.800811,-77528.864398
35.340943,-5773.606348,7254.018232,-77682.083497
35.343477,-740.205942,9474.636058,-76609.549800
35.346011,888.247130,2516.700203,-77988.521696
35.348546,1776.494261,2368.659014,-77069.207099
35.351080,-1184.329507,-2960.823768,-76762.768900
35.353614,-1480.411884,1184.329507,-76609.549800
35.356149,-592.164754,-3256.906145,-79673.931792
35.358683,0.000000,2072.576638,-77375.645298
35.361217,-888.247130,148.041188,-76456.330700
35.363752,1332.370696,3108.864956,-76303.111601
35.366286,-444.123565,3108.864956,-76915.987999
35.368820,-1776.494261,5329.482782,-78294.959896
35.371355,-3701.029710,5773.606348,-78754.617194
35.373889,-2368.659014,4293.194464,-77528.864398
35.376423,-6957.935855,6513.812290,-75537.016103
35.378958,-7105.977043,5625.565159,-77222.426198
35.381492,-2664.741391,1480.411884,-77375.645298
35.384026,5625.565159,-444.123565,-77528.864398
35.386561,8586.388927,-5329.482782,-77835.302597
35.389095,13767.830521,-9622.677246,-78294.959896
35.391636,10362.883188,-9622.677246,-77682.083497
35.394176,7698.141797,-13323.706956,-77682.083497
35.396717,4293.194464,-9770.718434,-76762.768900
35.399258,2812.782580,-6365.771101,-77069.207099
35.401798,3108.864956,1184.329507,-76609.549800
35.404339,2664.741391,-3404.947333,-79214.274493
35.406880,6809.894666,-4885.359217,-79061.055394
35.409420,2516.700203,-2220.617826,-76149.892501
35.411961,5773.606348,-1776.494261,-75383.797003
35.414502,4589.276840,-4885.359217,-78601.398095
35.417042,4145.153275,-4441.235652,-78141.740796
35.419583,7402.059420,-8142.265362,-77682.083497
35.422123,6217.729913,-7402.059420,-76149.892501
35.424664,7550.100608,-8142.265362,-77528.864398
35.427205,9622.677246,-6069.688724,-77528.864398
35.429745,12139.377449,-8734.430116,-76762.768900
35.432286,9326.594869,-5033.400406,-77375.645298
35.434827,1036.288319,-2368.659014,-77528.864398
35.437367,-3997.112087,4145.153275,-77069.207099
35.439908,-5477.523971,3849.070898,-77528.864398
35.442449,-5181.441594,9770.718434,-75843.454302
35.444989,-2960.823768,5773.606348,-78141.740796
35.447530,0.000000,12435.459826,-75996.673402
35.450071,-148.041188,1628.453072,-78448.178995
35.452611,3552.988522,-296.082377,-77069.207099
35.455152,-1480.411884,-2220.617826,-75230.577904
35.457693,-444.123565,-1332.370696,-76303.111601
35.460233,-1480.411884,-592.164754,-78294.959896
35.462774,3256.906145,-888.247130,-78294.959896
35.465315,1628.453072,2812.782580,-76149.892501
35.467855,-296.082377,3552.988522,-74464.482406
35.470396,-1036.288319,5181.441594,-76303.111601
35.472937,-2812.782580,5329.482782,-77988.521696
35.475477,-2664.741391,6069.688724,-77528.864398
35.478018,-4589.276840,5033.400406,-76456.330700
35.480559,-8142.265362,5625.565159,-76456.330700
35.483099,-4145.153275,0.000000,-77682.083497
35.485640,2516.700203,0.000000,-76609.549800
35.488181,8142.265362,-3701.029710,-76915.987999
35.490721,11991.336260,-3849.070898,-77835.302597
35.493267,12287.418637,-11695.253884,-78601.398095
35.495814,10214.842000,-9474.636058,-76915.987999
35.498360,5033.400406,-14211.954086,-78294.959896
35.500906,3552.988522,-5773.606348,-76762.768900
35.503452,2516.700203,-888.247130,-76609.549800
35.505998,3849.070898,-592.164754,-79367.493593
35.508545,3849.070898,-2812.782580,-78294.959896
35.511091,8142.265362,-5329.482782,-77069.207099
35.513637,3849.070898,-1628.453072,-76762.768900
35.516183,5773.606348,-2960.823768,-76915.987999
35.518729,3256.906145,-4293.194464,-79214.274493
35.521276,4737.318029,-8142.265362,-77682.083497
35.523822,5625.565159,-6365.771101,-76303.111601
35.526368,7402.059420,-9030.512492,-77222.426198
35.528914,9770.718434,-5181.441594,-76609.549800
35.531460,13027.624579,-10510.924376,-78601.398095
35.534007,10807.006753,-1924.535449,-77069.207099
35.536553,1480.411884,-4293.194464,-78294.959896
35.539099,-3404.947333,5773.606348,-76915.987999
35.541645,-6809.894666,3404.947333,-77069.207099
35.544192,-4737.318029,8290.306550,-76149.892501
35.546738,-5181.441594,6365.771101,-77375.645298
35.549284,-148.041188,11547.212695,-77528.864398
35.551830,444.123565,6365.771101,-76456.330700
35.554376,1480.411884,3997.112087,-76915.987999
35.556923,-740.205942,-6217.729913,-77835.302597
35.559469,-2072.576638,888.247130,-75383.797003
35.562015,592.164754,-3256.906145,-78294.959896
35.564561,3404.947333,4293.194464,-78601.398095
35.567107,1480.411884,-1036.288319,-77682.083497
35.569654,0.000000,5181.441594,-74004.825107
35.572200,-1628.453072,2664.741391,-76149.892501
35.574746,-2220.617826,6809.894666,-77682.083497
35.577292,-4145.153275,6217.729913,-78294.959896
35.579838,-2960.823768,3404.947333,-77988.521696
35.582385,-7846.182985,7254.018232,-76609.549800
35.584931,-5181.441594,888.247130,-77682.083497
35.587477,2220.617826,1036.288319,-77222.426198
35.590023,8290.306550,-3256.906145,-77069.207099
35.592569,9918.759623,-4293.194464,-77069.207099
35.595120,11843.295072,-10362.883188,-77069.207099
35.597670,8882.471304,-9770.718434,-77069.207099
35.600220,6809.894666,-13619.789333,-78448.178995
35.602770,4293.194464,-8290.306550,-78141.740796
35.605320,4293.194464,-6513.812290,-77528.864398
35.607870,2072.576638,4589.276840,-75690.235202
35.610421,740.205942,148.041188,-77682.083497
35.612971,6217.729913,-888.247130,-76303.111601
35.615521,4293.194464,-2960.823768,-75843.454302
35.618071,3404.947333,-1480.411884,-76149.892501
35.620621,3701.029710,-4589.276840,-76609.549800
35.623171,7254.018232,-8734.430116,-78754.617194
35.625722,6661.853478,-8290.306550,-77375.645298
35.628272,9474.636058,-6957.935855,-76303.111601
35.630822,9030.512492,-6661.853478,-76915.987999
35.633372,11991.336260,-8734.430116,-76915.987999
35.635922,9918.759623,-5921.647536,-76456.330700
35.638473,3997.112087,-1332.370696,-76456.330700
35.641023,-3997.112087,2220.617826,-78141.740796
35.643573,-6365.771101,4293.194464,-76762.768900
35.646123,-6809.894666,9622.677246,-75996.673402
35.648673,-4145.153275,7550.100608,-76762.768900
35.651223,-1332.370696,13175.665768,-76149.892501
35.653774,1480.411884,6513.812290,-77682.083497
35.656324,1036.288319,2368.659014,-77988.521696
35.658874,2220.617826,-4737.318029,-77069.207099
35.661424,1480.411884,-1332.370696,-75843.454302
35.663974,-2072.576638,-2812.782580,-77682.083497
35.666524,1924.535449,-444.123565,-78141.740796
35.669075,2516.700203,3701.029710,-76915.987999
35.671625,-592.164754,3108.864956,-75383.797003
35.674175,296.082377,7698.141797,-75690.235202
35.676725,-3256.906145,7846.182985,-77528.864398
35.679275,-3849.070898,6513.812290,-77988.521696
35.681825,-4885.359217,3256.906145,-77682.083497
35.684376,-7105.977043,6069.688724,-76762.768900
35.686926,-4145.153275,1924.535449,-77222.426198
35.689476,1924.535449,1776.494261,-76149.892501
35.692026,7994.224174,-3256.906145,-77528.864398
35.694576,9326.594869,-5181.441594,-77682.083497
35.697129,11251.130318,-11251.130318,-78601.398095
35.699683,9918.759623,-9030.512492,-77528.864398
35.702236,3849.070898,-13471.748144,-77682.083497
35.704789,3256.906145,-5625.565159,-75230.577904
35.707342,1628.453072,-3108.864956,-76456.330700
35.709896,4145.153275,148.041188,-79367.493593
35.712449,7402.059420,-5181.441594,-79673.931792
35.715002,5033.400406,740.205942,-76456.330700
35.717555,888.247130,-6217.729913,-75843.454302
35.720109,2960.823768,-2220.617826,-76915.987999
35.722662,3997.112087,-5625.565159,-77988.521696
35.725215,7846.182985,-8290.306550,-78141.740796
35.727768,6217.729913,-6661.853478,-74924.139704
35.730322,8734.430116,-7846.182985,-75843.454302
35.732875,10510.924376,-6513.812290,-76762.768900
35.735428,12879.583391,-10362.883188,-78754.617194
35.737981,5181.441594,-3256.906145,-77069.207099
35.740535,-1628.453072,-148.041188,-77528.864398
35.743088,-5033.400406,5773.606348,-77835.302597
35.745641,-7550.100608,4737.318029,-77375.645298
35.748194,-5477.523971,11547.212695,-76303.111601
35.750748,-5181.441594,8734.430116,-76303.111601
35.753301,-444.123565,13619.789333,-74924.139704
35.755854,1332.370696,5625.565159,-77835.302597
35.758407,148.041188,2960.823768,-77375.645298
35.760961,296.082377,-3701.029710,-76762.768900
35.763514,1036.288319,-296.082377,-77069.207099
35.766067,-2664.741391,-3997.112087,-77528.864398
35.768620,2812.782580,1480.411884,-77375.645298
35.771174,-296.082377,1628.453072,-75843.454302
35.773727,148.041188,5033.400406,-75690.235202
35.776280,-2664.741391,4145.153275,-76915.987999
35.778833,-2960.823768,6365.771101,-76762.768900
35.781387,-4885.359217,5329.482782,-76915.987999
35.783940,-6661.853478,6957.935855,-77375.645298
35.786493,-6513.812290,2960.823768,-77375.645298
35.789046,-592.164754,2516.700203,-76149.892501
35.791600,5181.441594,-2516.700203,-76609.549800
35.794153,10214.842000,-4441.235652,-77222.426198
35.796706,13471.748144,-10807.006753,-78754.617194
35.799262,9770.718434,-9178.553681,-77528.864398
35.801818,7402.059420,-11843.295072,-76915.987999
35.804374,4145.153275,-9622.677246,-77682.083497
35.806930,3552.988522,-6069.688724,-76762.768900
35.809486,4589.276840,-1184.329507,-78141.740796
35.812042,4737.318029,1036.288319,-76609.549800
35.814599,6513.812290,-888.247130,-77682.083497
35.817155,3552.988522,-2664.741391,-76915.987999
35.819711,3404.947333,-3108.864956,-76456.330700
35.822267,3701.029710,-4737.318029,-76609.549800
35.824823,6217.729913,-8142.265362,-78754.617194
35.827379,7698.141797,-10510.924376,-77988.521696
35.829935,9326.594869,-8586.388927,-76762.768900
35.832491,10066.800811,-6661.853478,-76915.987999
35.835047,11695.253884,-7402.059420,-77222.426198
35.837603,8438.347739,-5033.400406,-77528.864398
35.840159,148.041188,-888.247130,-77375.645298
35.842715,-5625.565159,4441.235652,-77835.302597
35.845271,-4885.359217,7105.977043,-77069.207099
35.847827,-8586.388927,9622.677246,-76456.330700
35.850383,-2072.576638,9326.594869,-76609.549800
35.852939,-2072.576638,6809.894666,-77528.864398
35.855495,888.247130,4589.276840,-76762.768900
35.858051,888.247130,1332.370696,-77835.302597
35.860607,888.247130,-6069.688724,-77988.521696
35.863163,2220.617826,-4737.318029,-77682.083497
35.865719,-1332.370696,-444.123565,-77222.426198
35.868275,1332.370696,1628.453072,-78601.398095
35.870831,1036.288319,888.247130,-77682.083497
35.873387,-1036.288319,7698.141797,-74617.701505
35.875943,-2368.659014,3108.864956,-77222.426198
35.878500,-5477.523971,6217.729913,-78141.740796
35.881056,-4885.359217,3701.029710,-78294.959896
35.883612,-4885.359217,6809.894666,-77835.302597
35.886168,-6513.812290,7846.182985,-76149.892501
35.888724,-1628.453072,2516.700203,-77069.207099
35.891280,6217.729913,-4145.153275,-77222.426198
35.893836,8142.265362,-7254.018232,-76456.330700
35.896392,11991.336260,-13619.789333,-79061.055394
35.898948,9918.759623,-9918.759623,-77375.645298
35.901507,5625.565159,-13915.871710,-78141.740796
35.904065,5181.441594,-7698.141797,-77835.302597
35.906624,3997.112087,-4737.318029,-76609.549800
35.909183,2812.782580,444.123565,-77988.521696
35.911741,4885.359217,-3997.112087,-78294.959896
35.914300,5625.565159,4293.194464,-77069.207099
35.916859,2368.659014,-5773.606348,-77528.864398
35.919418,3256.906145,740.205942,-76762.768900
35.921976,4145.153275,-6365.771101,-78907.836294
35.924535,7254.018232,-7698.141797,-77835.302597
35.927094,5477.523971,-9178.553681,-77222.426198
35.929652,11991.336260,-6957.935855,-76303.111601
35.932211,11991.336260,-7846.182985,-77069.207099
35.934770,11399.171507,-7550.100608,-76609.549800
35.937329,7698.141797,-3256.906145,-77222.426198
35.939887,-3404.947333,1036.288319,-77682.083497
35.942446,-4885.359217,2664.741391,-77682.083497
35.945005,-8438.347739,7254.018232,-77222.426198
35.947563,-4293.194464,8438.347739,-76149.892501
35.950122,-1036.288319,9918.759623,-76762.768900
35.952681,740.205942,5773.606348,-78754.617194
35.955240,1628.453072,4145.153275,-77682.083497
35.957798,-2368.659014,1184.329507,-76149.892501
35.960357,1628.453072,-2220.617826,-77222.426198
35.962916,1480.411884,-1924.535449,-78294.959896
35.965474,-1184.329507,592.164754,-77528.864398
35.968033,3701.029710,1628.453072,-77222.426198
35.970592,148.041188,4885.359217,-75077.358804
35.973151,-1776.494261,5033.400406,-74617.701505
35.975709,-3404.947333,8142.265362,-77835.302597
35.978268,-5625.565159,7402.059420,-77988.521696
35.980827,-5625.565159,7402.059420,-77069.207099
35.983386,-7402.059420,5181.441594,-77528.864398
35.985944,-3552.988522,2220.617826,-77528.864398
35.988503,3108.864956,-1332.370696,-76456.330700
35.991062,7698.141797,-6513.812290,-76609.549800
35.993620,13175.665768,-7550.100608,-77835.302597
35.996179,10658.965565,-14656.077652,-79367.493593
35.998738,9918.759623,-8882.471304,-77835.302597
36.001297,6069.688724,-8290.306550,-75996.673402
36.003850,3701.029710,-5773.606348,-76609.549800
36.006410,3108.864956,-296.082377,-76762.768900
36.008971,3256.906145,-2664.741391,-79520.712692
36.011531,6661.853478,-1924.535449,-76762.768900
36.014091,3404.947333,-5625.565159,-77682.083497
36.016652,3404.947333,-3552.988522,-76762.768900
36.019212,5625.565159,-6069.688724,-79367.493593
36.021773,6217.729913,-7105.977043,-77069.207099
36.024333,6809.894666,-9474.636058,-77222.426198
36.026893,7550.100608,-7846.182985,-76456.330700
36.029454,9474.636058,-7698.141797,-76609.549800
36.032014,12435.459826,-7846.182985,-77375.645298
36.034574,9030.512492,-6661.853478,-77069.207099
36.037135,888.247130,-2072.576638,-77222.426198
36.039695,-5477.523971,3701.029710,-77375.645298
36.042256,-5181.441594,5477.523971,-76762.768900
36.044816,-7550.100608,11103.089130,-75996.673402
36.047376,-2812.782580,7402.059420,-77069.207099
36.049937,-1628.453072,7402.059420,-76149.892501
36.052497,-444.123565,7105.977043,-78141.740796
36.055057,1184.329507,1924.535449,-76762.768900
36.057618,-1776.494261,148.041188,-76456.330700
36.060178,2368.659014,-7105.977043,-78601.398095
36.062739,1924.535449,148.041188,-77528.864398
36.065299,1332.370696,592.164754,-76762.768900
36.067859,1184.329507,4589.276840,-76303.111601
36.070420,-1480.411884,6365.771101,-75077.358804
36.072980,-2368.659014,6809.894666,-76762.768900
36.075540,-6365.771101,5773.606348,-79061.055394
36.078101,-3849.070898,7550.100608,-77375.645298
36.080661,-9326.594869,7105.977043,-77069.207099
36.083222,-3701.029710,4589.276840,-77375.645298
36.085782,0.000000,-148.041188,-76915.987999
36.088342,10658.965565,-4293.194464,-77222.426198
36.090903,10362.883188,-4441.235652,-76609.549800
36.093463,11547.212695,-15840.407159,-79214.274493
36.096023,9918.759623,-8734.430116,-77682.083497
36.098584,5773.606348,-15988.448347,-78754.617194
36.101144,4145.153275,-4737.318029,-75996.673402
36.103705,3997.112087,-6809.894666,-77835.302597
36.106267,6217.729913,1036.288319,-77375.645298
36.108828,740.205942,-4293.194464,-77528.864398
36.111390,5033.400406,3997.112087,-75230.577904
36.113952,296.082377,-6661.853478,-77069.207099
36.116514,5921.647536,-592.164754,-77222.426198
36.119076,4293.194464,-7105.977043,-78754.617194
36.121638,7846.182985,-9178.553681,-77375.645298
36.124200,7846.182985,-9030.512492,-76456.330700
36.126762,10214.842000,-8882.471304,-77069.207099
36.129324,13027.624579,-8290.306550,-77222.426198
36.131886,10214.842000,-7846.182985,-77528.864398
36.134448,1480.411884,-2368.659014,-77835.302597
36.137010,-4293.194464,2664.741391,-77835.302597
36.139572,-7105.977043,7550.100608,-76609.549800
36.142134,-7698.141797,10510.924376,-76303.111601
36.144695,-4885.359217,9326.594869,-76915.987999
36.147257,-1480.411884,6661.853478,-78294.959896
36.149819,1184.329507,3997.112087,-79061.055394
36.152381,444.123565,0.000000,-77528.864398
36.154943,1036.288319,-592.164754,-76149.892501
36.157505,-296.082377,-1332.370696,-77682.083497
36.160067,592.164754,-3404.947333,-78294.959896
36.162629,2072.576638,2664.741391,-76762.768900
36.165191,148.041188,1924.535449,-76456.330700
36.167753,148.041188,6809.894666,-74464.482406
36.170315,-4145.153275,5181.441594,-77375.645298
36.172877,-3849.070898,4589.276840,-77069.207099
36.175439,-4293.194464,4885.359217,-78754.617194
36.178001,-10658.965565,9030.512492,-76456.330700
36.180563,-2960.823768,1036.288319,-79061.055394
36.183124,2812.782580,444.123565,-77835.302597
36.185686,9474.636058,-6809.894666,-76303.111601
36.188248,10214.842000,-5773.606348,-77222.426198
36.190810,11547.212695,-13619.789333,-78141.740796
36.193372,10658.965565,-9770.718434,-78294.959896
36.195934,5033.400406,-13471.748144,-78141.740796
36.198496,3256.906145,-4737.318029,-76149.892501
36.201058,5033.400406,-4293.194464,-76915.987999
36.203620,5625.565159,-888.247130,-78907.836294
36.206182,4737.318029,-3108.864956,-76456.330700
36.208745,2220.617826,-1924.535449,-75230.577904
36.211308,3108.864956,-3701.029710,-75690.235202
36.213872,3552.988522,-4145.153275,-79367.493593
36.216435,8438.347739,-7994.224174,-79214.274493
36.218998,7846.182985,-8734.430116,-77988.521696
36.221561,7550.100608,-8882.471304,-76915.987999
36.224125,10362.883188,-7846.182985,-76149.892501
36.226688,13175.665768,-6957.935855,-76762.768900
36.229251,7550.100608,-5181.441594,-76456.330700
36.231814,-148.041188,2368.659014,-77222.426198
36.234378,-6809.894666,5329.482782,-77375.645298
36.236941,-6217.729913,5773.606348,-76915.987999
36.239504,-5921.647536,10807.006753,-75537.016103
36.242067,-1924.535449,9178.553681,-75383.797003
36.244631,-444.123565,12435.459826,-75077.358804
36.247194,-444.123565,5181.441594,-76762.768900
36.249757,-148.041188,-1332.370696,-77682.083497
36.252320,444.123565,148.041188,-75843.454302
36.254884,-592.164754,-2368.659014,-76915.987999
36.257447,740.205942,-4293.194464,-79061.055394
36.260010,3108.864956,2960.823768,-76915.987999
36.262573,740.205942,1332.370696,-75996.673402
36.265137,-1184.329507,7550.100608,-75077.358804
36.267700,-3552.988522,1776.494261,-78448.178995
36.270263,-3108.864956,6365.771101,-77835.302597
36.272826,-9030.512492,6661.853478,-77375.645298
36.275390,-6661.853478,7550.100608,-77528.864398
36.277953,-2812.782580,888.247130,-77988.521696
36.280516,5477.523971,-296.082377,-75843.454302
36.283080,9770.718434,-6217.729913,-76456.330700
36.285643,12879.583391,-11103.089130,-78294.959896
36.288206,10807.006753,-11991.336260,-77988.521696
36.290769,6069.688724,-11251.130318,-77375.645298
36.293333,2664.741391,-7402.059420,-77375.645298
36.295896,4441.235652,-2812.782580,-77069.207099
36.298459,4441.235652,-1480.411884,-78294.959896
36.301022,2072.576638,-592.164754,-75230.577904
36.303586,1776.494261,2072.576638,-75996.673402
36.306149,148.041188,-2516.700203,-76915.987999
36.308712,5625.565159,-3256.906145,-78294.959896
36.311275,4737.318029,-5773.606348,-78141.740796
36.313839,8290.306550,-8438.347739,-78754.617194
36.316402,9178.553681,-8734.430116,-76456.330700
36.318966,10955.047942,-8438.347739,-75843.454302
36.321529,14656.077652,-9474.636058,-78754.617194
36.324092,8734.430116,-6217.729913,-77069.207099
36.326656,296.082377,-296.082377,-77069.207099
36.329219,-5477.523971,3701.029710,-79214.274493
36.331782,-6957.935855,6365.771101,-77835.302597
36.334346,-6513.812290,11695.253884,-76609.549800
36.336909,-4441.235652,9030.512492,-75537.016103
36.339473,-888.247130,8882.471304,-77835.302597
36.342036,444.123565,3552.988522,-78601.398095
36.344599,2368.659014,-1480.411884,-76762.768900
36.347163,-1184.329507,-1184.329507,-76149.892501
36.349726,0.000000,-2220.617826,-77835.302597
36.352289,888.247130,-444.123565,-78754.617194
36.354853,2812.782580,1036.288319,-77222.426198
36.357416,-296.082377,4589.276840,-75383.797003
36.359980,-2220.617826,5181.441594,-74770.920605
36.362543,-3404.947333,9622.677246,-76762.768900
36.365106,-5477.523971,6957.935855,-77988.521696
36.367670,-6809.894666,8586.388927,-77988.521696
36.370233,-9030.512492,5921.647536,-77375.645298
36.372797,-2368.659014,1924.535449,-77222.426198
36.375360,7846.182985,-4589.276840,-76762.768900
36.377923,8290.306550,-5921.647536,-76915.987999
36.380487,16136.489536,-14211.954086,-77682.083497
36.383050,10362.883188,-10510.924376,-77988.521696
36.385613,7550.100608,-14508.036463,-78754.617194
36.388177,5033.400406,-7254.018232,-77222.426198
36.390740,2664.741391,-5477.523971,-76303.111601
36.393304,4441.235652,740.205942,-75843.454302
36.395867,3701.029710,-2220.617826,-78754.617194
36.398430,5329.482782,3108.864956,-76915.987999
36.400994,3701.029710,-3256.906145,-77528.864398
36.403557,6069.688724,-888.247130,-77069.207099
36.406120,3849.070898,-7994.224174,-79827.150892
36.408684,6809.894666,-7994.224174,-77069.207099
36.411247,8586.388927,-10066.800811,-77528.864398
36.413811,12879.583391,-8290.306550,-76303.111601
36.416374,13323.706956,-8438.347739,-76915.987999
36.418938,10510.924376,-5921.647536,-77375.645298
36.421502,1924.535449,-3108.864956,-78141.740796
36.424065,-5921.647536,3108.864956,-77988.521696
36.426629,-7550.100608,3552.988522,-78754.617194
36.429193,-7550.100608,11399.171507,-76915.987999
36.431756,-3997.112087,9474.636058,-76456.330700
36.434320,148.041188,12287.418637,-75383.797003
36.436884,0.000000,4885.359217,-78141.740796
36.439447,3404.947333,-2812.782580,-79980.369991
36.442011,592.164754,-1776.494261,-77528.864398
36.444574,592.164754,-1184.329507,-76915.987999
36.447138,1924.535449,-3997.112087,-78294.959896
36.449702,1332.370696,3404.947333,-76762.768900
36.452265,1036.288319,2664.741391,-77222.426198
36.454829,-1184.329507,6069.688724,-77222.426198
36.457393,-5181.441594,7698.141797,-77375.645298
36.459956,-7254.018232,6069.688724,-78448.178995
36.462520,-8290.306550,7846.182985,-77222.426198
36.465084,-8882.471304,7698.141797,-76915.987999
36.467647,-148.041188,0.000000,-78601.398095
36.470211,8290.306550,-3849.070898,-77222.426198
36.472774,8290.306550,-7402.059420,-76609.549800
36.475338,14508.036463,-12879.583391,-78141.740796
36.477902,11251.130318,-11547.212695,-77835.302597
36.480465,9474.636058,-13767.830521,-78448.178995
36.483029,3701.029710,-7402.059420,-77069.207099
36.485593,4145.153275,-740.205942,-74770.920605
36.488156,3997.112087,592.164754,-76915.987999
36.490720,4441.235652,1332.370696,-77069.207099
36.493284,1184.329507,1480.411884,-74617.701505
36.495815,888.247130,-1776.494261,-76456.330700
36.498346,2072.576638,-3849.070898,-77222.426198
36.500878,6513.812290,-8586.388927,-79367.493593
36.503409,5625.565159,-10214.842000,-78294.959896
36.505940,10362.883188,-11399.171507,-77375.645298
36.508472,11547.212695,-8734.430116,-75996.673402
36.511003,14804.118840,-8882.471304,-76915.987999
36.513534,9770.718434,-5477.523971,-77222.426198
36.516066,-2960.823768,-1628.453072,-79367.493593
36.518597,-7105.977043,5329.482782,-77375.645298
36.521129,-9622.677246,5181.441594,-76915.987999
36.523660,-5921.647536,14211.954086,-74924.139704
36.526191,-2812.782580,9622.677246,-76149.892501
36.528723,296.082377,11399.171507,-76762.768900
36.531254,-296.082377,2960.823768,-77069.207099
36.533785,2812.782580,3108.864956,-76456.330700
36.536317,-444.123565,-1776.494261,-76762.768900
36.538848,1184.329507,-4885.359217,-77375.645298
36.541380,2812.782580,-592.164754,-77375.645298
36.543911,2516.700203,1924.535449,-77069.207099
36.546442,1480.411884,3404.947333,-77222.426198
36.548974,-1776.494261,5921.647536,-76149.892501
36.551505,-2812.782580,6809.894666,-76456.330700
36.554036,-7698.141797,6217.729913,-77682.083497
36.556568,-8586.388927,7846.182985,-77528.864398
36.559099,-5329.482782,6957.935855,-77682.083497
36.561630,1184.329507,-1184.329507,-77528.864398
36.564162,10510.924376,-4441.235652,-76609.549800
36.566693,10066.800811,-8142.265362,-75843.454302
36.569225,12879.583391,-13619.789333,-78141.740796
36.571756,10658.965565,-11991.336260,-78141.740796
36.574287,5477.523971,-13027.624579,-78754.617194
36.576819,4293.194464,-4737.318029,-76609.549800
36.579350,4589.276840,296.082377,-75843.454302
36.581881,7254.018232,-2516.700203,-78907.836294
36.584413,3552.988522,-296.082377,-76915.987999
36.586944,4885.359217,-1036.288319,-76303.111601
36.589475,3849.070898,-4293.194464,-77375.645298
36.592007,5477.523971,-6513.812290,-78294.959896
36.594538,4589.276840,-7698.141797,-77528.864398
36.597076,8142.265362,-11399.171507,-77682.083497
36.599614,11843.295072,-8142.265362,-76149.892501
36.602152,15248.242405,-10955.047942,-76915.987999
36.604690,11695.253884,-6069.688724,-77222.426198
36.607228,2516.700203,-3552.988522,-78141.740796
36.609767,-5329.482782,5625.565159,-77988.521696
36.612305,-8586.388927,6513.812290,-77069.207099
36.614843,-9474.636058,11991.336260,-76609.549800
36.617381,-4441.235652,7254.018232,-75843.454302
36.619919,-296.082377,12731.542202,-75537.016103
36.622457,888.247130,5921.647536,-77222.426198
36.624995,1184.329507,1184.329507,-77375.645298
36.627533,1480.411884,-2516.700203,-78754.617194
36.630071,1924.535449,296.082377,-77528.864398
36.632609,-1184.329507,-3997.112087,-78907.836294
36.635147,2072.576638,1628.453072,-77222.426198
36.637685,296.082377,4737.318029,-74770.920605
36.640223,-148.041188,8734.430116,-76149.892501
36.642761,-3997.112087,5329.482782,-78601.398095
36.645299,-5477.523971,7550.100608,-78754.617194
36.647837,-9474.636058,5181.441594,-78448.178995
36.650376,-6513.812290,7994.224174,-75690.235202
36.652914,444.123565,-1628.453072,-76762.768900
36.655452,10658.965565,-4145.153275,-76762.768900
36.657990,11103.089130,-8290.306550,-77375.645298
36.660528,14508.036463,-13619.789333,-78601.398095
36.663066,10362.883188,-13027.624579,-78448.178995
36.665604,6513.812290,-13175.665768,-77528.864398
36.668142,4145.153275,-5921.647536,-77375.645298
36.670680,2664.741391,-296.082377,-74924.139704
36.673218,1628.453072,-592.164754,-78141.740796
36.675756,4737.318029,0.000000,-76762.768900
36.678294,3849.070898,1776.494261,-75383.797003
36.680832,1036.288319,-7994.224174,-78448.178995
36.683370,4145.153275,-2220.617826,-77682.083497
36.685908,6809.894666,-9474.636058,-79520.712692
36.688447,9770.718434,-8586.388927,-77375.645298
36.690985,10362.883188,-12435.459826,-77528.864398
36.693523,14508.036463,-10066.800811,-76609.549800
36.696061,13175.665768,-8586.388927,-76456.330700
36.698605,4293.194464,-148.041188,-76149.892501
36.701149,-7402.059420,3108.864956,-79214.274493
36.703693,-8290.306550,9770.718434,-75843.454302
36.706237,-10214.842000,11991.336260,-75230.577904
36.708782,-2368.659014,7550.100608,-77375.645298
36.711326,-1480.411884,9918.759623,-75383.797003
36.713870,-592.164754,0.000000,-77835.302597
36.716414,1184.329507,1776.494261,-77222.426198
36.718958,4145.153275,0.000000,-78141.740796
36.721503,-592.164754,5033.400406,-77222.426198
36.724047,-3849.070898,-1480.411884,-77835.302597
36.726591,1184.329507,2812.782580,-76609.549800
36.729135,-1332.370696,2812.782580,-75230.577904
36.731679,-296.082377,7105.977043,-76762.768900
36.734223,-4441.235652,6661.853478,-77988.521696
36.736768,-5625.565159,10658.965565,-77222.426198
36.739312,-9918.759623,9178.553681,-76915.987999
36.741856,-4589.276840,2960.823768,-77988.521696
36.744400,4145.153275,-2368.659014,-77375.645298
36.746944,9474.636058,-6809.894666,-76456.330700
36.749489,13323.706956,-9030.512492,-77682.083497
36.752033,12287.418637,-13915.871710,-77988.521696
36.754577,11251.130318,-12287.418637,-78448.178995
36.757121,4589.276840,-11399.171507,-78141.740796
36.759665,3256.906145,-6217.729913,-78448.178995
36.762209,1628.453072,-2368.659014,-76915.987999
36.764754,3108.864956,-1480.411884,-76762.768900
36.767298,3404.947333,3108.864956,-75690.235202
36.769842,2664.741391,-2960.823768,-77835.302597
36.772386,4589.276840,-2368.659014,-77528.864398
36.774930,3701.029710,-7846.182985,-78754.617194
36.777474,7550.100608,-7105.977043,-77528.864398
36.780019,7698.141797,-12287.418637,-78448.178995
36.782563,12731.542202,-8882.471304,-76609.549800
36.785107,12879.583391,-10066.800811,-77069.207099
36.787651,9770.718434,-6513.812290,-76762.768900
36.790195,-1776.494261,-1776.494261,-77375.645298
36.792740,-6365.771101,4589.276840,-78448.178995
36.795284,-7846.182985,6217.729913,-77375.645298
36.797828,-6217.729913,13471.748144,-75690.235202
36.800377,-1924.535449,12583.501014,-75537.016103
36.802925,1184.329507,12879.583391,-75843.454302
36.805474,888.247130,1924.535449,-77988.521696
36.808023,1480.411884,1036.288319,-76609.549800
36.810571,-888.247130,1480.411884,-76456.330700
36.813120,-1776.494261,-5181.441594,-77988.521696
36.815668,-148.041188,-2812.782580,-79061.055394
36.818217,1924.535449,0.000000,-77988.521696
36.820766,2368.659014,6217.729913,-75383.797003
36.823314,-3108.864956,6513.812290,-76915.987999
36.825863,-2960.823768,7254.018232,-77375.645298
36.828412,-9178.553681,7402.059420,-79214.274493
36.830960,-7254.018232,9918.759623,-75843.454302
36.833509,-4441.235652,3849.070898,-76915.987999
36.836058,6365.771101,-2960.823768,-76915.987999
36.838606,10214.842000,-8586.388927,-76609.549800
36.841155,15840.407159,-12287.418637,-77682.083497
36.843704,10955.047942,-13323.706956,-76762.768900
36.846252,10214.842000,-16580.613101,-78907.836294
36.848801,3849.070898,-10362.883188,-77835.302597
36.851350,2960.823768,-2960.823768,-76609.549800
36.853898,5033.400406,-148.041188,-77988.521696
36.856447,3552.988522,-3997.112087,-78448.178995
36.858995,4737.318029,0.000000,-75690.235202
36.861544,1036.288319,-6957.935855,-77375.645298
36.864093,2516.700203,0.000000,-74004.825107
36.866641,7994.224174,-9326.594869,-80133.589091
36.869190,9474.636058,-9622.677246,-79367.493593
36.871739,10066.800811,-10362.883188,-77682.083497
36.874287,13471.748144,-9918.759623,-75996.673402
36.876836,13027.624579,-10362.883188,-76915.987999
36.879385,7105.977043,-2664.741391,-77375.645298
36.881933,-7254.018232,5033.400406,-77375.645298
36.884482,-5921.647536,8586.388927,-77835.302597
36.887031,-8882.471304,11991.336260,-76762.768900
36.889579,-5477.523971,9474.636058,-76303.111601
36.892128,-1184.329507,10214.842000,-73545.167808
36.894677,1924.535449,3849.070898,-76149.892501
36.897225,3997.112087,296.082377,-78448.178995
36.899774,3108.864956,148.041188,-77528.864398
36.902327,-2516.700203,1036.288319,-76609.549800
36.904879,-296.082377,-5329.482782,-78448.178995
36.907432,2072.576638,5033.400406,-75996.673402
36.909985,-2072.576638,2664.741391,-75996.673402
36.912538,-888.247130,9326.594869,-75383.797003
36.915091,-5181.441594,8586.388927,-77528.864398
36.917643,-7105.977043,13471.748144,-76303.111601
36.920196,-11695.253884,7846.182985,-78294.959896
36.922749,-6809.894666,5477.523971,-76762.768900
36.925302,1332.370696,-2072.576638,-76762.768900
36.927854,9770.718434,-7254.018232,-77069.207099
36.930407,14804.118840,-10066.800811,-77222.426198
36.932960,14359.995275,-12287.418637,-77835.302597
36.935513,9622.677246,-13767.830521,-77988.521696
36.938065,5477.523971,-11399.171507,-78754.617194
36.940618,2220.617826,-5329.482782,-78754.617194
36.943171,2664.741391,-1628.453072,-79214.274493
36.945724,2072.576638,2664.741391,-75077.358804
36.948277,592.164754,-1480.411884,-75843.454302
36.950829,2220.617826,444.123565,-75230.577904
36.953382,1628.453072,-4885.359217,-77988.521696
36.955935,5477.523971,-6661.853478,-79367.493593
36.958488,7402.059420,-7698.141797,-77528.864398
36.961040,10807.006753,-9030.512492,-76149.892501
36.963593,15692.365970,-11103.089130,-77222.426198
36.966146,14804.118840,-10066.800811,-77069.207099
36.968699,3849.070898,-3849.070898,-76456.330700
36.971252,-5625.565159,1776.494261,-77682.083497
36.973804,-8882.471304,5773.606348,-78601.398095
36.976357,-7846.182985,8734.430116,-77375.645298
36.978910,-5921.647536,13175.665768,-76303.111601
36.981463,-1924.535449,10510.924376,-75077.358804
36.984015,1036.288319,8586.388927,-75383.797003
36.986568,-592.164754,-740.205942,-77528.864398
36.989121,1776.494261,-2220.617826,-78294.959896
36.991674,1184.329507,-5181.441594,-77528.864398
36.994226,-148.041188,-2960.823768,-77835.302597
36.996779,-592.164754,-1480.411884,-78141.740796
36.999332,1628.453072,5625.565159,-77069.207099
37.001885,-1628.453072,6217.729913,-76149.892501
37.004443,-3701.029710,9770.718434,-76762.768900
37.006998,-7698.141797,10658.965565,-76609.549800
37.009554,-9918.759623,9474.636058,-77375.645298
37.012110,-7550.100608,7550.100608,-77222.426198
37.014665,592.164754,-888.247130,-77069.207099
37.017221,10214.842000,-7402.059420,-77069.207099
37.019776,14063.912898,-10658.965565,-77222.426198
37.022332,14656.077652,-15988.448347,-77528.864398
37.024887,11103.089130,-14063.912898,-78907.836294
37.027443,4885.359217,-12435.459826,-77988.521696
