#time,accel_x,accel_y,accel_z
159.898107,1776.494261,-296.082377,-77069.207099
159.900680,3404.947333,-1924.535449,-77835.302597
159.903253,2516.700203,888.247130,-77069.207099
159.905826,888.247130,-3256.906145,-77835.302597
159.908400,2960.823768,148.041188,-77528.864398
159.910973,1776.494261,444.123565,-76762.768900
159.913546,5773.606348,-1628.453072,-77988.521696
159.916119,4885.359217,2516.700203,-76915.987999
159.918692,1184.329507,1628.453072,-77528.864398
159.921265,4737.318029,0.000000,-78141.740796
159.923839,2960.823768,3404.947333,-77069.207099
159.926412,7254.018232,4885.359217,-76456.330700
159.928985,9474.636058,2960.823768,-78294.959896
159.931558,10955.047942,6809.894666,-75843.454302
159.934131,7550.100608,4885.359217,-76762.768900
159.936704,2812.782580,6069.688724,-76303.111601
159.939277,-3552.988522,592.164754,-77682.083497
159.941851,296.082377,-1628.453072,-77375.645298
159.944424,-2368.659014,-7105.977043,-77682.083497
159.946997,-296.082377,-8290.306550,-76609.549800
159.949570,-592.164754,-9178.553681,-76762.768900
159.952143,0.000000,-9770.718434,-78294.959896
159.954716,1480.411884,-3108.864956,-76762.768900
159.957290,3108.864956,1628.453072,-77069.207099
159.959863,296.082377,2664.741391,-76915.987999
159.962436,-444.123565,2368.659014,-77375.645298
159.965009,1480.411884,-1924.535449,-77528.864398
159.967582,-740.205942,296.082377,-77069.207099
159.970155,-1480.411884,-4737.318029,-77528.864398
159.972729,888.247130,-4293.194464,-79214.274493
159.975302,888.247130,-5773.606348,-76303.111601
159.977875,2368.659014,1480.411884,-75843.454302
159.980448,2960.823768,-4737.318029,-78448.178995
159.983021,-296.082377,-5477.523971,-78601.398095
159.985594,2220.617826,-1776.494261,-76915.987999
159.988168,-1184.329507,-740.205942,-77069.207099
159.990742,740.205942,-2516.700203,-76915.987999
159.993316,-2960.823768,-1332.370696,-76762.768900
159.995890,-1628.453072,-3997.112087,-76149.892501
159.998464,-1776.494261,-7698.141797,-78141.740796
160.001039,-1480.411884,-4885.359217,-76303.111601
160.003613,444.123565,-5477.523971,-76456.330700
160.006187,-888.247130,-2960.823768,-78141.740796
160.008761,-2664.741391,-1628.453072,-77835.302597
160.011336,148.041188,-444.123565,-76915.987999
160.013910,2664.741391,-2072.576638,-77528.864398
160.016484,-444.123565,-444.123565,-76915.987999
160.019058,-1480.411884,-4737.318029,-77375.645298
160.021632,3108.864956,-2812.782580,-76149.892501
160.024207,888.247130,-5033.400406,-77222.426198
160.026781,296.082377,148.041188,-77222.426198
160.029355,2220.617826,-740.205942,-78448.178995
160.031929,4145.153275,888.247130,-76915.987999
160.034503,4737.318029,-2368.659014,-75690.235202
160.037078,5329.482782,-1480.411884,-76762.768900
160.039652,7846.182985,2812.782580,-77222.426198
160.042226,7254.018232,6069.688724,-79980.369991
160.044800,-1628.453072,6513.812290,-77528.864398
160.047375,1332.370696,2516.700203,-77222.426198
160.049949,5329.482782,1036.288319,-75996.673402
160.052523,5033.400406,-444.123565,-75843.454302
160.055097,9178.553681,-296.082377,-77988.521696
160.057671,1924.535449,2960.823768,-77835.302597
160.060246,1924.535449,1628.453072,-78448.178995
160.062820,2072.576638,1628.453072,-77375.645298
160.065394,3552.988522,-592.164754,-75383.797003
160.067968,6809.894666,-740.205942,-77069.207099
160.070543,2664.741391,888.247130,-78141.740796
160.073117,4145.153275,2812.782580,-78141.740796
160.075691,5181.441594,3701.029710,-78754.617194
160.078265,2812.782580,-3108.864956,-77835.302597
160.080839,5033.400406,-5033.400406,-78907.836294
160.083414,296.082377,2220.617826,-74924.139704
160.085988,1628.453072,-2812.782580,-77682.083497
160.088562,6217.729913,6069.688724,-77988.521696
160.091136,1480.411884,1924.535449,-77988.521696
160.093719,2960.823768,2812.782580,-76915.987999
160.096293,4737.318029,6069.688724,-75843.454302
160.098867,2812.782580,2812.782580,-76915.987999
160.101442,10066.800811,444.123565,-77835.302597
160.104016,9622.677246,3701.029710,-76456.330700
160.106590,6069.688724,4293.194464,-75077.358804
160.109165,1480.411884,444.123565,-77528.864398
160.111739,-1332.370696,-4293.194464,-77222.426198
160.114313,2368.659014,-2812.782580,-77682.083497
160.116888,6217.729913,2960.823768,-76762.768900
160.119462,5773.606348,2220.617826,-77069.207099
160.122036,6809.894666,2664.741391,-76915.987999
160.124611,6365.771101,4293.194464,-75996.673402
160.127185,-1184.329507,-2368.659014,-76303.111601
160.129759,-3404.947333,-3256.906145,-76456.330700
160.132334,-592.164754,-2664.741391,-78448.178995
160.134908,740.205942,-4293.194464,-79214.274493
160.137482,-1480.411884,-3997.112087,-78141.740796
160.140057,-1332.370696,-4885.359217,-74770.920605
160.142631,4145.153275,-6069.688724,-75537.016103
160.145206,2220.617826,-4441.235652,-76456.330700
160.147780,148.041188,-3849.070898,-79061.055394
160.150354,-3404.947333,3108.864956,-77222.426198
160.152929,-3552.988522,-2220.617826,-76609.549800
160.155503,1480.411884,-3849.070898,-76609.549800
160.158077,1184.329507,-4441.235652,-77222.426198
160.160652,2368.659014,-1924.535449,-77528.864398
160.163226,148.041188,0.000000,-77988.521696
160.165800,-1628.453072,-2960.823768,-78601.398095
160.168375,-1184.329507,-1776.494261,-75996.673402
160.170949,1776.494261,-3108.864956,-75996.673402
160.173523,-296.082377,-4885.359217,-77222.426198
160.176098,1480.411884,2220.617826,-75996.673402
160.178672,2516.700203,4145.153275,-75690.235202
160.181246,-888.247130,-2220.617826,-78601.398095
160.183821,4737.318029,1480.411884,-76609.549800
160.186395,-2664.741391,-3108.864956,-77682.083497
160.188969,1480.411884,-3404.947333,-75077.358804
160.191544,444.123565,-6513.812290,-77835.302597
160.194118,-2812.782580,-5921.647536,-77682.083497
160.196693,296.082377,-6957.935855,-78601.398095
160.199267,-1924.535449,-2516.700203,-76303.111601
160.201841,-3404.947333,-4737.318029,-77375.645298
160.204416,-888.247130,296.082377,-77069.207099
160.206990,-2220.617826,1480.411884,-76303.111601
160.209565,4293.194464,-1184.329507,-77528.864398
160.212139,3552.988522,1184.329507,-77528.864398
160.214713,-3849.070898,-3701.029710,-77528.864398
160.217288,5033.400406,-2368.659014,-77222.426198
160.219862,-740.205942,-3404.947333,-77528.864398
160.222436,-592.164754,-296.082377,-76762.768900
160.225011,3108.864956,1036.288319,-77528.864398
160.227585,4737.318029,3997.112087,-76456.330700
160.230160,5477.523971,296.082377,-76456.330700
160.232734,4737.318029,-3404.947333,-75996.673402
160.235308,7105.977043,3404.947333,-75996.673402
160.237883,4589.276840,8142.265362,-78601.398095
160.240457,0.000000,3256.906145,-78907.836294
160.243032,2368.659014,5181.441594,-76609.549800
160.245606,2812.782580,1924.535449,-75996.673402
160.248180,7402.059420,-2516.700203,-77375.645298
160.250755,7994.224174,1480.411884,-77682.083497
160.253329,3256.906145,1332.370696,-77835.302597
160.255904,3701.029710,2960.823768,-77375.645298
160.258478,1332.370696,-1184.329507,-78141.740796
160.261052,4293.194464,-296.082377,-76149.892501
160.263627,4293.194464,-3108.864956,-76456.330700
160.266201,2664.741391,-1480.411884,-78754.617194
160.268776,5033.400406,6069.688724,-76762.768900
160.271350,3108.864956,-148.041188,-78754.617194
160.273924,2812.782580,592.164754,-77682.083497
160.276499,4589.276840,1628.453072,-75996.673402
160.279044,-148.041188,888.247130,-76762.768900
160.281590,5773.606348,3701.029710,-75843.454302
160.284136,2072.576638,740.205942,-78907.836294
160.286681,5181.441594,5773.606348,-77222.426198
160.289227,4441.235652,-888.247130,-79520.712692
160.291772,7698.141797,4293.194464,-75843.454302
160.294318,6957.935855,2220.617826,-77835.302597
160.296864,10362.883188,1332.370696,-77988.521696
160.299409,7550.100608,2368.659014,-77528.864398
160.301955,1332.370696,3552.988522,-75537.016103
160.304501,0.000000,-1776.494261,-77682.083497
160.307046,2960.823768,444.123565,-77069.207099
160.309592,4441.235652,-148.041188,-77069.207099
160.312138,5181.441594,-740.205942,-77682.083497
160.314683,4293.194464,296.082377,-76915.987999
160.317229,5921.647536,1332.370696,-77222.426198
160.319774,-1036.288319,-3256.906145,-77222.426198
160.322320,-3701.029710,-2812.782580,-77682.083497
160.324866,3256.906145,-2220.617826,-78601.398095
160.327411,-3849.070898,-2368.659014,-78601.398095
160.329957,-2072.576638,-7402.059420,-76456.330700
160.332503,2960.823768,-4293.194464,-75537.016103
160.335048,-296.082377,-7550.100608,-75690.235202
160.337594,2368.659014,-5773.606348,-79061.055394
160.340140,-148.041188,-2960.823768,-78294.959896
160.342685,-2960.823768,444.123565,-78141.740796
160.345231,-3256.906145,-592.164754,-76609.549800
160.347776,1480.411884,-4589.276840,-76609.549800
160.350322,3997.112087,-888.247130,-76149.892501
160.352868,0.000000,-2072.576638,-77375.645298
160.355413,740.205942,-1628.453072,-77222.426198
160.357959,592.164754,-1628.453072,-78141.740796
160.360505,-1776.494261,-7846.182985,-77222.426198
160.363050,3701.029710,-3701.029710,-77222.426198
160.365596,1480.411884,-1924.535449,-76762.768900
160.368142,888.247130,-296.082377,-76762.768900
160.370687,2812.782580,-1036.288319,-77069.207099
160.373233,0.000000,-2368.659014,-76915.987999
160.375778,1480.411884,-2368.659014,-75996.673402
160.378324,-1036.288319,-3997.112087,-77375.645298
160.380847,-592.164754,-8290.306550,-77682.083497
160.383369,-1036.288319,-4145.153275,-77682.083497
160.385891,-2960.823768,-6217.729913,-77069.207099
160.388414,-444.123565,-888.247130,-75996.673402
160.390936,-7698.141797,-3701.029710,-76762.768900
160.393459,-148.041188,-5921.647536,-78294.959896
160.395981,444.123565,-1036.288319,-77682.083497
160.398504,2960.823768,-3849.070898,-77069.207099
160.401026,3108.864956,148.041188,-77222.426198
160.403549,296.082377,-3849.070898,-75537.016103
160.406071,2516.700203,-1776.494261,-77222.426198
160.408594,-2368.659014,-2368.659014,-76915.987999
160.411116,296.082377,740.205942,-76149.892501
160.413639,6217.729913,1480.411884,-77682.083497
160.416161,7550.100608,592.164754,-75383.797003
160.418684,2072.576638,-2220.617826,-75537.016103
160.421206,10658.965565,-296.082377,-76762.768900
160.423729,5477.523971,5033.400406,-78294.959896
160.426251,2516.700203,3404.947333,-78754.617194
160.428774,1776.494261,4589.276840,-78294.959896
160.431296,1332.370696,3108.864956,-75077.358804
160.433819,7254.018232,-1036.288319,-75843.454302
160.436341,6957.935855,2220.617826,-77528.864398
160.438863,1480.411884,592.164754,-77682.083497
160.441386,8290.306550,1184.329507,-77835.302597
160.443908,1332.370696,2664.741391,-76149.892501
160.446431,444.123565,-592.164754,-75996.673402
160.448953,6809.894666,-2220.617826,-76762.768900
160.451476,4145.153275,444.123565,-77835.302597
160.453998,592.164754,4885.359217,-76609.549800
160.456521,4293.194464,740.205942,-77375.645298
160.459043,3404.947333,3552.988522,-75537.016103
160.461566,1776.494261,-1480.411884,-77375.645298
160.464088,7105.977043,1776.494261,-76303.111601
160.466611,1924.535449,2664.741391,-76456.330700
160.469133,6513.812290,2664.741391,-76915.987999
160.471656,6069.688724,2960.823768,-79367.493593
160.474178,3997.112087,6513.812290,-75230.577904
160.476701,8586.388927,1924.535449,-78601.398095
160.479223,10214.842000,2812.782580,-76303.111601
160.481756,5773.606348,1924.535449,-77222.426198
160.484288,5329.482782,0.000000,-77375.645298
160.486821,-1184.329507,0.000000,-77222.426198
160.489354,4737.318029,-148.041188,-77069.207099
160.491887,5773.606348,0.000000,-78141.740796
160.494419,1036.288319,888.247130,-77528.864398
160.496952,1480.411884,-888.247130,-76609.549800
160.499485,6957.935855,296.082377,-77222.426198
160.502018,-1924.535449,-2220.617826,-76762.768900
160.504550,-888.247130,-148.041188,-77069.207099
160.507083,1184.329507,-1036.288319,-78754.617194
160.509616,-740.205942,-2664.741391,-78448.178995
160.512148,-2516.700203,-4441.235652,-75843.454302
160.514681,-148.041188,-8438.347739,-75383.797003
160.517214,4145.153275,-6217.729913,-76456.330700
160.519747,-148.041188,-5921.647536,-78294.959896
160.522279,-3108.864956,-2368.659014,-78141.740796
160.524812,-2960.823768,-740.205942,-77988.521696
160.527345,-1184.329507,-3849.070898,-76149.892501
160.529878,1924.535449,-2812.782580,-76303.111601
160.532410,3404.947333,-444.123565,-76149.892501
160.534943,3404.947333,-2516.700203,-78448.178995
160.537476,-1480.411884,740.205942,-77835.302597
160.540008,592.164754,-1776.494261,-76456.330700
160.542541,1628.453072,-6365.771101,-76303.111601
160.545074,1332.370696,-3108.864956,-76915.987999
160.547607,-444.123565,-1776.494261,-76762.768900
160.550139,5477.523971,-3701.029710,-78141.740796
160.552672,2664.741391,-444.123565,-76762.768900
160.555205,2220.617826,-4293.194464,-76609.549800
160.557738,1924.535449,-2072.576638,-77069.207099
160.560270,-3552.988522,-4885.359217,-75996.673402
160.562803,1332.370696,-3552.988522,-76303.111601
160.565336,-3108.864956,-6661.853478,-77682.083497
160.567868,-3108.864956,-4441.235652,-76915.987999
160.570401,-5033.400406,-6513.812290,-77988.521696
160.572934,-1480.411884,-2960.823768,-76149.892501
160.575467,296.082377,-2368.659014,-78294.959896
160.577999,1776.494261,-4589.276840,-78601.398095
160.580532,888.247130,-2664.741391,-76609.549800
160.583045,3108.864956,-888.247130,-76609.549800
160.585557,3404.947333,-296.082377,-78754.617194
160.588070,-5773.606348,-2368.659014,-77222.426198
160.590582,5329.482782,-1924.535449,-77528.864398
160.593095,7105.977043,3701.029710,-76303.111601
160.595607,2812.782580,-2516.700203,-76456.330700
160.598120,7846.182985,-2516.700203,-77222.426198
160.600632,3849.070898,3108.864956,-76149.892501
160.603145,7105.977043,2516.700203,-77988.521696
160.605657,5033.400406,5773.606348,-78601.398095
160.608170,-740.205942,3997.112087,-75537.016103
160.610682,6217.729913,1184.329507,-76762.768900
160.613195,7402.059420,1184.329507,-77375.645298
160.615707,5477.523971,-1480.411884,-76456.330700
160.618220,4885.359217,3108.864956,-77222.426198
160.620732,3552.988522,-3701.029710,-78601.398095
160.623245,8438.347739,1480.411884,-76762.768900
160.625757,0.000000,888.247130,-75537.016103
160.628270,5181.441594,3256.906145,-75383.797003
160.630782,2516.700203,-2516.700203,-77375.645298
160.633295,1776.494261,3256.906145,-77682.083497
160.635807,4293.194464,3701.029710,-75230.577904
160.638320,3552.988522,-1628.453072,-77069.207099
160.640832,3404.947333,444.123565,-76456.330700
160.643345,1036.288319,-2072.576638,-79827.150892
160.645857,7994.224174,4293.194464,-75537.016103
160.648370,296.082377,1480.411884,-78141.740796
160.650882,7994.224174,2812.782580,-77528.864398
160.653395,7254.018232,5033.400406,-77069.207099
160.655907,7846.182985,5329.482782,-75230.577904
160.658420,8142.265362,1332.370696,-76915.987999
160.660932,3997.112087,888.247130,-77222.426198
160.663445,1184.329507,-1036.288319,-77528.864398
160.665957,8586.388927,3701.029710,-76456.330700
160.668470,0.000000,2220.617826,-77528.864398
160.670982,3404.947333,-3404.947333,-77528.864398
160.673495,7105.977043,-1184.329507,-77528.864398
160.676007,296.082377,740.205942,-75690.235202
160.678520,-1628.453072,-2812.782580,-77069.207099
160.681032,-296.082377,1036.288319,-77835.302597
160.683558,-1480.411884,-740.205942,-78754.617194
160.686083,0.000000,-2072.576638,-77375.645298
160.688608,-2368.659014,-7254.018232,-75690.235202
160.691134,2812.782580,-7994.224174,-76303.111601
160.693659,4293.194464,-3404.947333,-77528.864398
160.696184,-2812.782580,-3256.906145,-77835.302597
160.698710,-444.123565,-2516.700203,-78907.836294
160.701235,-4589.276840,-1332.370696,-77528.864398
160.703760,-1480.411884,-7402.059420,-76915.987999
160.706286,3404.947333,-444.123565,-75230.577904
160.708811,-2516.700203,-1332.370696,-75383.797003
160.711336,6365.771101,-3997.112087,-80133.589091
160.713862,-2812.782580,2072.576638,-77988.521696
160.716387,-444.123565,-4885.359217,-77069.207099
160.718912,3849.070898,-4589.276840,-76456.330700
160.721438,2516.700203,-4737.318029,-77682.083497
160.723963,-1332.370696,-2072.576638,-78141.740796
160.726488,3108.864956,-1776.494261,-77375.645298
160.729014,-148.041188,-3552.988522,-78448.178995
160.731539,1776.494261,-1184.329507,-76149.892501
160.734064,-1628.453072,-6365.771101,-77682.083497
160.736590,-444.123565,-1924.535449,-75996.673402
160.739115,-5921.647536,-7402.059420,-77682.083497
160.741640,-2072.576638,-6809.894666,-77682.083497
160.744166,-3997.112087,-5625.565159,-78141.740796
160.746691,148.041188,-2072.576638,-77375.645298
160.749216,3404.947333,-2072.576638,-78907.836294
160.751741,-740.205942,-1628.453072,-75996.673402
160.754267,2072.576638,-6217.729913,-77222.426198
160.756792,4441.235652,2368.659014,-76149.892501
160.759317,-2072.576638,-148.041188,-77069.207099
160.761843,1332.370696,-1776.494261,-78754.617194
160.764368,5625.565159,2220.617826,-76915.987999
160.766893,3404.947333,-1628.453072,-77069.207099
160.769419,6661.853478,-1480.411884,-75690.235202
160.771944,2812.782580,0.000000,-76762.768900
160.774469,7698.141797,4885.359217,-77835.302597
160.776995,3997.112087,7698.141797,-79061.055394
160.779520,296.082377,3849.070898,-76149.892501
160.782045,5477.523971,1924.535449,-76149.892501
160.784582,2664.741391,2516.700203,-74924.139704
160.787118,7846.182985,-592.164754,-78294.959896
160.789654,7550.100608,2072.576638,-77988.521696
160.792190,3701.029710,1184.329507,-77528.864398
160.794726,4737.318029,1184.329507,-78907.836294
160.797262,148.041188,1036.288319,-74770.920605
160.799799,3849.070898,3108.864956,-75230.577904
160.802335,3256.906145,5033.400406,-75537.016103
160.804871,2220.617826,-740.205942,-77375.645298
160.807407,3256.906145,148.041188,-78448.178995
160.809943,3404.947333,-1924.535449,-77528.864398
160.812479,3552.988522,-1628.453072,-77988.521696
160.815016,5329.482782,2516.700203,-75537.016103
160.817552,2812.782580,296.082377,-77682.083497
160.820088,6069.688724,6365.771101,-75843.454302
160.822624,6217.729913,4145.153275,-77222.426198
160.825160,8290.306550,5181.441594,-77528.864398
160.827696,8734.430116,4589.276840,-77069.207099
160.830232,4145.153275,1924.535449,-75537.016103
160.832769,3701.029710,-1480.411884,-77069.207099
160.835305,5181.441594,2516.700203,-77069.207099
160.837841,5477.523971,2072.576638,-77988.521696
160.840377,4589.276840,-148.041188,-77682.083497
160.842913,-740.205942,-888.247130,-76915.987999
160.845449,5033.400406,-1184.329507,-76149.892501
160.847986,-592.164754,-444.123565,-76762.768900
160.850522,-6217.729913,-3256.906145,-76609.549800
160.853058,2220.617826,-3108.864956,-79367.493593
160.855594,592.164754,1480.411884,-77682.083497
160.858130,-5033.400406,-6809.894666,-77682.083497
160.860666,2220.617826,-7402.059420,-76149.892501
160.863203,4145.153275,-8882.471304,-76762.768900
160.865739,296.082377,-6069.688724,-78754.617194
160.868275,-2072.576638,-2812.782580,-78601.398095
160.870811,-3404.947333,-1480.411884,-78294.959896
160.873347,-2368.659014,-296.082377,-75996.673402
160.875883,-148.041188,-2960.823768,-76303.111601
160.878420,1628.453072,-3849.070898,-75690.235202
160.880956,-1036.288319,888.247130,-75690.235202
160.883492,1924.535449,-3701.029710,-78141.740796
160.886037,4885.359217,2812.782580,-75843.454302
160.888583,2812.782580,-5625.565159,-77069.207099
160.891128,-148.041188,-5329.482782,-77069.207099
160.893674,-1924.535449,148.041188,-77222.426198
160.896219,3701.029710,-4145.153275,-77375.645298
160.898764,3404.947333,592.164754,-77835.302597
160.901310,-6365.771101,-4885.359217,-77835.302597
160.903855,4737.318029,-2516.700203,-76149.892501
160.906401,-3849.070898,-6217.729913,-77988.521696
160.908946,-2516.700203,-4589.276840,-75230.577904
160.911492,-7550.100608,-6365.771101,-77528.864398
160.914037,-2960.823768,-6957.935855,-77988.521696
160.916582,2220.617826,-3108.864956,-78448.178995
160.919128,1480.411884,-1480.411884,-76303.111601
160.921673,-1036.288319,-7254.018232,-78141.740796
160.924219,5477.523971,1628.453072,-76149.892501
160.926764,-1776.494261,-148.041188,-77375.645298
160.929310,2072.576638,444.123565,-77069.207099
160.931855,-1184.329507,592.164754,-78754.617194
160.934400,5921.647536,1776.494261,-77222.426198
160.936946,5921.647536,-2220.617826,-78141.740796
160.939491,3997.112087,-1776.494261,-75996.673402
160.942037,7994.224174,1480.411884,-76915.987999
160.944582,4293.194464,3849.070898,-79367.493593
160.947128,3997.112087,5477.523971,-78141.740796
160.949673,2220.617826,4293.194464,-77069.207099
160.952218,3404.947333,1924.535449,-75690.235202
160.954764,6365.771101,1480.411884,-75996.673402
160.957309,6365.771101,3997.112087,-76456.330700
160.959855,3404.947333,296.082377,-78448.178995
160.962400,4441.235652,2368.659014,-78601.398095
160.964945,2812.782580,-2220.617826,-80286.808190
160.967491,1036.288319,-1184.329507,-76456.330700
160.970036,6365.771101,-296.082377,-76149.892501
160.972582,2368.659014,1184.329507,-76915.987999
160.975127,1776.494261,-1184.329507,-77528.864398
160.977673,2664.741391,2516.700203,-76303.111601
160.980218,1924.535449,-2072.576638,-78141.740796
160.982763,4293.194464,2368.659014,-76303.111601
160.985309,3404.947333,444.123565,-78294.959896
160.987861,7698.141797,2072.576638,-76456.330700
160.990414,6069.688724,9918.759623,-76915.987999
160.992967,8734.430116,4589.276840,-78141.740796
160.995519,10066.800811,4441.235652,-77528.864398
160.998072,1628.453072,592.164754,-75843.454302
161.000624,1628.453072,-5625.565159,-76915.987999
161.003177,6513.812290,1332.370696,-76762.768900
161.005729,1036.288319,-1776.494261,-77528.864398
161.008282,4441.235652,-1480.411884,-78601.398095
161.010835,4589.276840,3404.947333,-75537.016103
161.013387,1036.288319,888.247130,-76149.892501
161.015940,-888.247130,-2072.576638,-76456.330700
161.018492,-2960.823768,0.000000,-76915.987999
161.021045,1480.411884,-1776.494261,-78601.398095
161.023597,-2664.741391,-3108.864956,-77988.521696
161.026150,-2960.823768,-6365.771101,-76303.111601
161.028703,1776.494261,-11991.336260,-77835.302597
161.031255,4885.359217,-6365.771101,-76609.549800
161.033808,-1924.535449,-3849.070898,-77222.426198
161.036360,-592.164754,-2220.617826,-78754.617194
161.038913,-5329.482782,-2664.741391,-77682.083497
161.041465,-1628.453072,-2664.741391,-76915.987999
161.044018,1332.370696,-2664.741391,-76762.768900
161.046571,1332.370696,-2664.741391,-75537.016103
161.049123,2960.823768,-2960.823768,-78907.836294
161.051676,-888.247130,-3552.988522,-77682.083497
161.054228,1776.494261,444.123565,-76149.892501
161.056781,1036.288319,-5329.482782,-76915.987999
161.059333,2368.659014,-4145.153275,-78141.740796
161.061886,-1332.370696,-3108.864956,-76456.330700
161.064439,1776.494261,-1480.411884,-76303.111601
161.066991,1184.329507,-296.082377,-76303.111601
161.069544,148.041188,-5477.523971,-77988.521696
161.072096,-1036.288319,-3849.070898,-77069.207099
161.074649,-9178.553681,-9474.636058,-76456.330700
161.077201,-2220.617826,-9622.677246,-77222.426198
161.079754,-2516.700203,-3552.988522,-77375.645298
161.082307,-1776.494261,-3701.029710,-77988.521696
161.084859,4589.276840,-1776.494261,-77988.521696
161.087412,3404.947333,-1184.329507,-76303.111601
161.089976,3404.947333,740.205942,-76915.987999
161.092535,1628.453072,1776.494261,-77069.207099
161.095094,-3108.864956,-2220.617826,-77375.645298
161.097653,7698.141797,1628.453072,-78294.959896
161.100211,2664.741391,-1036.288319,-77988.521696
161.102770,4885.359217,-296.082377,-75537.016103
161.105329,6217.729913,-5921.647536,-77988.521696
161.107888,8290.306550,5181.441594,-75843.454302
161.110447,2664.741391,3701.029710,-78448.178995
161.113005,5181.441594,8142.265362,-77988.521696
161.115564,1628.453072,3849.070898,-75996.673402
161.118123,5773.606348,2812.782580,-75996.673402
161.120682,8438.347739,2072.576638,-75843.454302
161.123241,4885.359217,2664.741391,-76609.549800
161.125800,5625.565159,-444.123565,-77835.302597
161.128358,2368.659014,0.000000,-80286.808190
161.130917,5181.441594,-1628.453072,-77222.426198
161.133476,7254.018232,740.205942,-76149.892501
161.136035,1480.411884,-740.205942,-75383.797003
161.138594,3108.864956,1628.453072,-77069.207099
161.141152,3552.988522,740.205942,-77528.864398
161.143711,3256.906145,-1184.329507,-77528.864398
161.146270,5181.441594,1332.370696,-76456.330700
161.148829,4441.235652,-1332.370696,-78601.398095
161.151388,6365.771101,5625.565159,-74924.139704
161.153946,7402.059420,4293.194464,-76456.330700
161.156505,7698.141797,5921.647536,-77835.302597
161.159064,5921.647536,4293.194464,-77528.864398
161.161623,8438.347739,-592.164754,-76762.768900
161.164182,2812.782580,888.247130,-75843.454302
161.166741,5329.482782,0.000000,-77222.426198
161.169299,6069.688724,1924.535449,-78294.959896
161.171858,1776.494261,-2368.659014,-78141.740796
161.174417,5921.647536,0.000000,-76149.892501
161.176976,5477.523971,-1036.288319,-76762.768900
161.179535,-7994.224174,-592.164754,-75077.358804
161.182093,1332.370696,-3552.988522,-78141.740796
161.184652,-1184.329507,1332.370696,-77988.521696
161.187211,-5033.400406,-5773.606348,-77528.864398
161.189770,3552.988522,-3701.029710,-77222.426198
161.192334,-3108.864956,-6069.688724,-75690.235202
161.194898,5921.647536,-9622.677246,-77069.207099
161.197462,5329.482782,-4441.235652,-79214.274493
161.200026,-6365.771101,-2368.659014,-77069.207099
161.202590,-888.247130,-2664.741391,-77988.521696
161.205154,-1924.535449,-148.041188,-76609.549800
161.207718,0.000000,-7698.141797,-76303.111601
161.210282,2960.823768,148.041188,-75537.016103
161.212846,-1628.453072,-2960.823768,-78294.959896
161.215410,2812.782580,-5477.523971,-81359.341888
161.217974,2960.823768,-1480.411884,-77222.426198
161.220538,740.205942,-5181.441594,-76303.111601
161.223102,4885.359217,-3701.029710,-77069.207099
161.225666,-5181.441594,-2960.823768,-79061.055394
161.228230,-888.247130,-3404.947333,-75537.016103
161.230794,2516.700203,-4441.235652,-77682.083497
161.233358,-4737.318029,-2664.741391,-75996.673402
161.235922,-1628.453072,-9474.636058,-76915.987999
161.238486,-5181.441594,-4145.153275,-76149.892501
161.241050,-4293.194464,-7105.977043,-77528.864398
161.243614,4589.276840,-296.082377,-78294.959896
161.246178,-3552.988522,-5921.647536,-78294.959896
161.248742,5477.523971,-2960.823768,-76762.768900
161.251306,-296.082377,148.041188,-76303.111601
161.253870,-3849.070898,-5625.565159,-77528.864398
161.256434,2812.782580,-444.123565,-77988.521696
161.258998,3997.112087,1924.535449,-77069.207099
161.261562,6661.853478,740.205942,-78141.740796
161.264126,3701.029710,2220.617826,-76762.768900
161.266690,3849.070898,-1036.288319,-75537.016103
161.269254,9474.636058,3849.070898,-77528.864398
161.271818,3108.864956,4589.276840,-77835.302597
161.274382,5329.482782,6661.853478,-78448.178995
161.276946,0.000000,2664.741391,-77222.426198
161.279510,3849.070898,592.164754,-76149.892501
161.282074,7550.100608,1924.535449,-76762.768900
161.284638,4737.318029,-296.082377,-76149.892501
161.287202,8882.471304,-888.247130,-77835.302597
161.289766,6661.853478,888.247130,-79214.274493
161.292330,888.247130,-2664.741391,-76762.768900
161.294897,4145.153275,1776.494261,-75383.797003
161.297465,1332.370696,592.164754,-75537.016103
161.300033,3849.070898,1332.370696,-77375.645298
161.302600,592.164754,888.247130,-77682.083497
161.305168,4293.194464,3849.070898,-75230.577904
161.307735,2960.823768,-1036.288319,-79520.712692
161.310303,5477.523971,2368.659014,-77528.864398
161.312871,6365.771101,1332.370696,-78294.959896
161.315438,10066.800811,7402.059420,-77222.426198
161.318006,4885.359217,3701.029710,-77375.645298
161.320574,9178.553681,1924.535449,-78141.740796
161.323141,4737.318029,2072.576638,-76456.330700
161.325709,2664.741391,2220.617826,-76303.111601
161.328277,3404.947333,296.082377,-77682.083497
161.330844,1924.535449,-2812.782580,-77222.426198
161.333412,4589.276840,4145.153275,-76303.111601
161.335980,740.205942,-1332.370696,-76609.549800
161.338547,296.082377,-2368.659014,-78448.178995
161.341115,-5477.523971,-2072.576638,-77528.864398
161.343683,-2368.659014,-4293.194464,-76915.987999
161.346250,-148.041188,-4737.318029,-78601.398095
161.348818,-5033.400406,-3997.112087,-75230.577904
161.351386,3552.988522,-11399.171507,-77375.645298
161.353953,1480.411884,-3701.029710,-77528.864398
161.356521,-740.205942,-4589.276840,-77222.426198
161.359088,1036.288319,444.123565,-77988.521696
161.361656,-5181.441594,-1184.329507,-77069.207099
161.364224,2368.659014,-3701.029710,-77988.521696
161.366791,592.164754,-888.247130,-75537.016103
161.369359,-2368.659014,-3256.906145,-76149.892501
161.371927,5181.441594,-1332.370696,-79520.712692
161.374494,-740.205942,-592.164754,-77375.645298
161.377062,-444.123565,2368.659014,-76303.111601
161.379630,7105.977043,-3552.988522,-76609.549800
161.382197,444.123565,-2812.782580,-77069.207099
161.384765,1184.329507,-3701.029710,-76303.111601
161.387333,0.000000,-2368.659014,-77528.864398
161.389900,-296.082377,-5181.441594,-77528.864398
161.392468,-1924.535449,-6069.688724,-78448.178995
161.395036,-6513.812290,-5773.606348,-76762.768900
161.397606,-4441.235652,-6365.771101,-77222.426198
161.400177,-296.082377,-3701.029710,-76915.987999
161.402748,-2072.576638,-6957.935855,-78907.836294
161.405319,2220.617826,-2960.823768,-77375.645298
161.407889,2072.576638,148.041188,-76762.768900
161.410460,2812.782580,2368.659014,-76915.987999
161.413031,-2072.576638,-2072.576638,-77375.645298
161.415602,2960.823768,3256.906145,-77375.645298
161.418172,3701.029710,3256.906145,-76915.987999
161.420743,7402.059420,2368.659014,-76609.549800
161.423314,3701.029710,-148.041188,-76762.768900
161.425885,9918.759623,2368.659014,-75843.454302
161.428455,3552.988522,2960.823768,-78141.740796
161.431026,2516.700203,4589.276840,-77682.083497
161.433597,2220.617826,1480.411884,-77069.207099
161.436168,4441.235652,2664.741391,-76149.892501
161.438738,5921.647536,-296.082377,-77375.645298
161.441309,6957.935855,4441.235652,-77375.645298
161.443880,6365.771101,-444.123565,-76915.987999
161.446451,4293.194464,3849.070898,-76456.330700
161.449022,-444.123565,1480.411884,-77528.864398
161.451592,6365.771101,-148.041188,-76456.330700
161.454163,2516.700203,2072.576638,-76149.892501
161.456734,4145.153275,444.123565,-75996.673402
161.459305,3701.029710,-1184.329507,-79061.055394
161.461875,6513.812290,8438.347739,-74158.044206
161.464446,1776.494261,-2072.576638,-79214.274493
161.467017,7846.182985,6957.935855,-76609.549800
161.469588,3849.070898,-592.164754,-77988.521696
161.472158,11399.171507,6069.688724,-77375.645298
161.474729,3849.070898,2220.617826,-77069.207099
161.477300,11547.212695,2368.659014,-76915.987999
161.479873,4589.276840,2516.700203,-77835.302597
161.482445,5625.565159,2516.700203,-75996.673402
161.485018,2220.617826,740.205942,-77375.645298
161.487591,-2368.659014,-1332.370696,-77528.864398
161.490164,6809.894666,-592.164754,-76762.768900
161.492736,-2664.741391,-2516.700203,-77375.645298
161.495309,0.000000,-5033.400406,-75843.454302
161.497882,148.041188,2220.617826,-77222.426198
161.500455,-444.123565,-4589.276840,-77835.302597
161.503027,-1332.370696,-3108.864956,-78448.178995
161.505600,-2960.823768,-6365.771101,-75690.235202
161.508173,2368.659014,-6957.935855,-76915.987999
161.510746,1036.288319,-4293.194464,-76762.768900
161.513318,-1184.329507,-5033.400406,-77835.302597
161.515891,148.041188,-444.123565,-77988.521696
161.518464,-4589.276840,-1924.535449,-77069.207099
161.521037,444.123565,-4441.235652,-76762.768900
161.523609,-1036.288319,-740.205942,-75996.673402
161.526182,1924.535449,-6513.812290,-77988.521696
161.528755,2960.823768,-2516.700203,-80286.808190
161.531328,296.082377,-3404.947333,-78294.959896
161.533900,2516.700203,-6957.935855,-78601.398095
161.536473,3701.029710,-2960.823768,-77069.207099
161.539046,-1924.535449,-4293.194464,-75537.016103
161.541618,444.123565,-1184.329507,-76915.987999
161.544191,-1924.535449,-5033.400406,-76303.111601
161.546764,-2072.576638,-6217.729913,-76303.111601
161.549337,-2220.617826,-6809.894666,-76762.768900
161.551909,-4885.359217,-5477.523971,-76149.892501
161.554482,-1924.535449,-5477.523971,-77222.426198
161.557055,-1184.329507,-3108.864956,-77069.207099
161.559628,-2812.782580,-5773.606348,-76762.768900
161.562200,5921.647536,-1480.411884,-77375.645298
161.564773,2960.823768,444.123565,-77222.426198
161.567346,-1480.411884,-1924.535449,-78448.178995
161.569919,3404.947333,3552.988522,-77222.426198
161.572491,2516.700203,444.123565,-77069.207099
161.575064,9326.594869,4589.276840,-75077.358804
161.577637,1776.494261,-740.205942,-76456.330700
161.580210,8290.306550,2812.782580,-77375.645298
161.582784,4441.235652,2368.659014,-78448.178995
161.585358,4885.359217,2220.617826,-77375.645298
161.587932,4737.318029,4589.276840,-76915.987999
161.590507,4885.359217,5477.523971,-74311.263306
161.593081,4737.318029,2516.700203,-76762.768900
161.595655,5033.400406,3256.906145,-76762.768900
161.598229,1480.411884,-296.082377,-78294.959896
161.600804,8882.471304,-296.082377,-78601.398095
161.603378,1184.329507,-2072.576638,-76915.987999
161.605952,3701.029710,-2072.576638,-76762.768900
161.608526,1924.535449,-592.164754,-76762.768900
161.611100,444.123565,444.123565,-76609.549800
161.613675,3701.029710,888.247130,-78601.398095
161.616249,3108.864956,-296.082377,-79214.274493
161.618823,6217.729913,3552.988522,-75843.454302
161.621397,5921.647536,3997.112087,-76915.987999
161.623972,6217.729913,5773.606348,-76762.768900
161.626546,6513.812290,4293.194464,-76915.987999
161.629120,7402.059420,5033.400406,-75996.673402
161.631694,8290.306550,1776.494261,-77069.207099
161.634269,6069.688724,4441.235652,-75537.016103
161.636843,2960.823768,-2220.617826,-77988.521696
161.639417,2072.576638,1776.494261,-77528.864398
161.641991,148.041188,-444.123565,-76915.987999
161.644566,4737.318029,-1628.453072,-77375.645298
161.647140,-3108.864956,-1332.370696,-75690.235202
161.649714,-2812.782580,-5033.400406,-77835.302597
161.652288,2960.823768,-1332.370696,-77988.521696
161.654862,-3256.906145,-2812.782580,-76609.549800
161.657437,148.041188,-5181.441594,-76456.330700
161.660011,2072.576638,-5921.647536,-76915.987999
161.662585,-1036.288319,-5329.482782,-75843.454302
161.665159,2072.576638,-5329.482782,-78754.617194
161.667734,-5773.606348,-2960.823768,-77222.426198
161.670308,-1776.494261,-6365.771101,-78294.959896
161.672882,1776.494261,-1184.329507,-76456.330700
161.675456,-4293.194464,-444.123565,-75843.454302
161.678031,4737.318029,-2516.700203,-77528.864398
161.680605,-444.123565,-3256.906145,-78448.178995
161.683179,-592.164754,-2812.782580,-77375.645298
161.685755,444.123565,-2220.617826,-77835.302597
161.688330,2072.576638,-2516.700203,-76762.768900
161.690906,592.164754,-5773.606348,-78754.617194
161.693482,-1184.329507,-2368.659014,-75690.235202
161.696057,-2664.741391,-2664.741391,-77069.207099
161.698633,-4293.194464,-3701.029710,-77222.426198
161.701208,-2960.823768,-8142.265362,-76915.987999
161.703784,-3849.070898,-5329.482782,-77835.302597
161.706360,-4885.359217,-4145.153275,-76609.549800
161.708935,-1184.329507,-5329.482782,-77835.302597
161.711511,296.082377,-296.082377,-76149.892501
161.714087,3552.988522,-3108.864956,-77528.864398
161.716662,4145.153275,592.164754,-77988.521696
161.719238,444.123565,0.000000,-76762.768900
161.721813,6809.894666,1776.494261,-77835.302597
161.724389,7846.182985,1776.494261,-77375.645298
161.726965,1036.288319,-1036.288319,-77528.864398
161.729540,7698.141797,2664.741391,-75843.454302
161.732116,4293.194464,4441.235652,-77528.864398
161.734692,4737.318029,6957.935855,-77528.864398
161.737267,2072.576638,3552.988522,-77069.207099
161.739843,4441.235652,1628.453072,-75537.016103
161.742419,4293.194464,2516.700203,-76609.549800
161.744994,4441.235652,592.164754,-77069.207099
161.747570,5921.647536,1184.329507,-78141.740796
161.750145,6365.771101,888.247130,-77528.864398
161.752721,3552.988522,444.123565,-77069.207099
161.755297,2220.617826,-3108.864956,-76762.768900
161.757872,2812.782580,2368.659014,-76149.892501
161.760448,4589.276840,-148.041188,-76609.549800
161.763024,3108.864956,2220.617826,-78294.959896
161.765599,3997.112087,1776.494261,-76762.768900
161.768175,6365.771101,2516.700203,-77222.426198
161.770750,7105.977043,2072.576638,-76915.987999
161.773326,4589.276840,3997.112087,-76762.768900
161.775902,8586.388927,3552.988522,-76915.987999
161.778477,7550.100608,1776.494261,-77835.302597
161.781053,9030.512492,3701.029710,-76762.768900
161.783629,6513.812290,1480.411884,-78141.740796
161.786204,3849.070898,2812.782580,-76762.768900
161.788780,-3256.906145,-1924.535449,-77528.864398
161.791356,4885.359217,444.123565,-77375.645298
161.793932,444.123565,-1184.329507,-76762.768900
161.796508,-4145.153275,-2516.700203,-76762.768900
161.799084,296.082377,0.000000,-77069.207099
161.801660,592.164754,-3404.947333,-76762.768900
161.804236,-1924.535449,-6513.812290,-77988.521696
161.806812,-1184.329507,-5477.523971,-75537.016103
161.809388,-296.082377,-10362.883188,-76915.987999
161.811964,3256.906145,-5181.441594,-77988.521696
161.814540,-1332.370696,-2220.617826,-78141.740796
161.817116,-4293.194464,-3404.947333,-78601.398095
161.819692,2072.576638,-5181.441594,-78294.959896
161.822268,592.164754,-1332.370696,-74924.139704
161.824844,-2960.823768,-6661.853478,-76456.330700
161.827420,1924.535449,-2960.823768,-77222.426198
161.829996,-740.205942,-1036.288319,-79061.055394
161.832572,1332.370696,-1628.453072,-77222.426198
161.835148,4441.235652,-1184.329507,-76149.892501
161.837724,-592.164754,-5033.400406,-76915.987999
161.840300,1036.288319,-6513.812290,-78294.959896
161.842876,-2516.700203,-1480.411884,-75843.454302
161.845452,-3404.947333,-3849.070898,-76149.892501
161.848028,-3404.947333,-5921.647536,-78294.959896
161.850604,-3108.864956,-8142.265362,-78141.740796
161.853180,296.082377,-3701.029710,-78141.740796
161.855756,-4885.359217,-5033.400406,-77069.207099
161.858332,0.000000,-3552.988522,-76149.892501
161.860908,5773.606348,-592.164754,-77835.302597
161.863484,1480.411884,1924.535449,-76456.330700
161.866060,296.082377,-2072.576638,-78294.959896
161.868636,6069.688724,4737.318029,-76149.892501
161.871212,1036.288319,-148.041188,-77528.864398
161.873788,7105.977043,1184.329507,-76149.892501
161.876364,2664.741391,-1480.411884,-76762.768900
161.878940,7994.224174,4145.153275,-77375.645298
161.881516,6957.935855,4293.194464,-78601.398095
161.884092,5181.441594,8142.265362,-76762.768900
161.886668,1628.453072,2072.576638,-76149.892501
161.889244,4589.276840,2368.659014,-76303.111601
161.891821,6513.812290,2220.617826,-76609.549800
161.894397,6217.729913,1332.370696,-77222.426198
161.896973,5477.523971,1628.453072,-77222.426198
161.899550,3701.029710,3849.070898,-77528.864398
161.902126,3108.864956,-2960.823768,-76456.330700
161.904703,5921.647536,-888.247130,-76609.549800
161.907279,-1480.411884,-592.164754,-76149.892501
161.909855,3404.947333,-148.041188,-78601.398095
161.912432,4145.153275,4293.194464,-78601.398095
161.915008,5329.482782,3701.029710,-76915.987999
161.917584,7402.059420,2072.576638,-77988.521696
161.920161,5329.482782,2368.659014,-77069.207099
161.922737,7698.141797,3701.029710,-77222.426198
161.925314,7698.141797,4737.318029,-76915.987999
161.927890,9622.677246,4589.276840,-76303.111601
161.930466,6809.894666,5625.565159,-77682.083497
161.933043,2220.617826,-148.041188,-77375.645298
161.935619,2812.782580,-2220.617826,-77835.302597
161.938196,2812.782580,1924.535449,-76456.330700
161.940772,-2960.823768,-6809.894666,-78448.178995
161.943348,-1184.329507,444.123565,-75996.673402
161.945925,-148.041188,-3552.988522,-78141.740796
161.948501,1332.370696,-2960.823768,-77682.083497
161.951078,-2072.576638,-5329.482782,-75843.454302
161.953654,-1776.494261,-9030.512492,-76303.111601
161.956230,2072.576638,-5921.647536,-76915.987999
161.958807,-1628.453072,-5033.400406,-77835.302597
161.961383,1036.288319,-2664.741391,-78601.398095
161.963959,-3701.029710,-4293.194464,-77069.207099
161.966536,-2220.617826,-2368.659014,-75843.454302
161.969112,888.247130,-6069.688724,-78294.959896
161.971689,1924.535449,-3997.112087,-76609.549800
161.974265,-2072.576638,-2960.823768,-80133.589091
161.976841,3404.947333,2516.700203,-78141.740796
161.979418,5477.523971,-3849.070898,-78601.398095
161.981994,2072.576638,2072.576638,-73851.606007
161.984571,-2960.823768,-8142.265362,-76303.111601
161.987147,888.247130,-2368.659014,-76762.768900
161.989723,-5033.400406,-8438.347739,-78141.740796
161.992300,-1776.494261,-1332.370696,-76609.549800
161.994876,-3997.112087,-7105.977043,-77835.302597
161.997452,-888.247130,-7105.977043,-77835.302597
162.000028,-3997.112087,-5477.523971,-77375.645298
162.002604,-3256.906145,-2812.782580,-76456.330700
162.005180,2960.823768,-888.247130,-76149.892501
162.007756,4293.194464,-1480.411884,-78754.617194
162.010332,296.082377,-2368.659014,-76915.987999
162.012908,6069.688724,6365.771101,-76149.892501
162.015484,6513.812290,1628.453072,-76762.768900
162.018060,2960.823768,2072.576638,-75537.016103
162.020636,5033.400406,-6513.812290,-78294.959896
162.023212,7994.224174,5033.400406,-76456.330700
162.025788,5181.441594,3997.112087,-77375.645298
162.028364,8586.388927,7402.059420,-77528.864398
162.030940,592.164754,4885.359217,-75537.016103
162.033517,3552.988522,1480.411884,-76456.330700
162.036093,7105.977043,3256.906145,-76149.892501
162.038669,3404.947333,-592.164754,-78141.740796
162.041245,6217.729913,3404.947333,-75843.454302
162.043821,3701.029710,-4145.153275,-79673.931792
162.046397,5773.606348,296.082377,-76456.330700
162.048973,740.205942,-148.041188,-76303.111601
162.051549,2960.823768,-1332.370696,-77528.864398
162.054125,2368.659014,2664.741391,-77222.426198
162.056701,2516.700203,1332.370696,-78294.959896
162.059277,6217.729913,6513.812290,-76915.987999
162.061853,6365.771101,5181.441594,-77222.426198
162.064429,6957.935855,3108.864956,-77069.207099
162.067005,7550.100608,4145.153275,-76915.987999
162.069581,7846.182985,3997.112087,-75996.673402
162.072157,9326.594869,2812.782580,-76456.330700
162.074733,3849.070898,2220.617826,-77988.521696
162.077309,-888.247130,-1332.370696,-77375.645298
162.079885,2664.741391,1332.370696,-76762.768900
162.082461,888.247130,1924.535449,-76149.892501
162.085037,-4589.276840,-3997.112087,-77528.864398
162.087614,888.247130,-1628.453072,-77222.426198
162.090190,2516.700203,-1184.329507,-77682.083497
162.092766,-2960.823768,-3997.112087,-78141.740796
162.095342,3701.029710,-3849.070898,-76456.330700
162.097917,-4145.153275,-5181.441594,-75843.454302
162.100492,1628.453072,-8290.306550,-76303.111601
162.103068,0.000000,-5329.482782,-79214.274493
162.105644,-3108.864956,-2220.617826,-77528.864398
162.108220,-1776.494261,-5477.523971,-79520.712692
162.110796,148.041188,-4589.276840,-76915.987999
162.113372,-740.205942,-2220.617826,-76149.892501
162.115947,1480.411884,-5625.565159,-75996.673402
162.118523,-444.123565,-1776.494261,-78141.740796
162.121099,592.164754,2516.700203,-77222.426198
162.123675,1480.411884,-4145.153275,-77069.207099
162.126251,2072.576638,-3849.070898,-77069.207099
162.128827,-2516.700203,-5625.565159,-76609.549800
162.131403,-1480.411884,-3701.029710,-76762.768900
162.133978,-4145.153275,-4885.359217,-77375.645298
162.136554,-2368.659014,-4589.276840,-76915.987999
162.139130,-3849.070898,-6069.688724,-78754.617194
162.141706,-4293.194464,-8882.471304,-77682.083497
162.144282,1776.494261,-5329.482782,-76915.987999
162.146858,1184.329507,1924.535449,-75843.454302
162.149433,-740.205942,-444.123565,-77988.521696
162.152009,1628.453072,-1036.288319,-78141.740796
162.154585,7254.018232,4885.359217,-78141.740796
162.157161,2516.700203,296.082377,-77375.645298
162.159737,4589.276840,740.205942,-77528.864398
162.162313,5181.441594,1036.288319,-76762.768900
162.164889,7254.018232,5329.482782,-76915.987999
162.167464,3404.947333,4145.153275,-78601.398095
162.170040,5477.523971,3404.947333,-77682.083497
162.172616,4293.194464,2664.741391,-76456.330700
162.175192,5477.523971,2664.741391,-75077.358804
162.177768,6809.894666,1628.453072,-77222.426198
162.180344,9178.553681,5033.400406,-77222.426198
162.182919,3849.070898,2368.659014,-78141.740796
162.185495,6069.688724,-1036.288319,-78448.178995
162.188071,1924.535449,444.123565,-76762.768900
162.190647,3108.864956,-1628.453072,-75537.016103
162.193223,3404.947333,2072.576638,-77988.521696
162.195799,1480.411884,3108.864956,-76456.330700
162.198374,7105.977043,1924.535449,-79214.274493
162.200950,3552.988522,7698.141797,-75996.673402
162.203526,6809.894666,3701.029710,-77528.864398
162.206102,8142.265362,1332.370696,-78448.178995
162.208678,8586.388927,3997.112087,-75537.016103
162.211254,8734.430116,3849.070898,-77682.083497
162.213830,6661.853478,5033.400406,-76915.987999
162.216406,-740.205942,-1776.494261,-78754.617194
162.218982,5329.482782,444.123565,-77069.207099
162.221558,1776.494261,1184.329507,-76915.987999
162.224134,-3552.988522,-1332.370696,-75690.235202
162.226710,-2072.576638,-3108.864956,-77682.083497
162.229286,1776.494261,-2960.823768,-77528.864398
162.231862,-740.205942,-2368.659014,-77682.083497
162.234438,-2072.576638,-7698.141797,-77222.426198
162.237013,444.123565,-5773.606348,-76456.330700
162.239589,0.000000,-6809.894666,-77069.207099
162.242165,-888.247130,-5625.565159,-77835.302597
162.244741,-888.247130,-2220.617826,-77682.083497
162.247317,-740.205942,-2812.782580,-77682.083497
162.249893,-888.247130,-2812.782580,-76915.987999
162.252469,-2220.617826,-5921.647536,-76149.892501
162.255045,296.082377,-1036.288319,-76303.111601
162.257621,2664.741391,-3108.864956,-77835.302597
162.260197,-148.041188,-2368.659014,-80133.589091
162.262773,1924.535449,-1480.411884,-77222.426198
162.265349,-592.164754,-6365.771101,-78754.617194
162.267925,888.247130,-4293.194464,-74924.139704
162.270501,-2220.617826,-6513.812290,-77682.083497
162.273077,-3701.029710,-3256.906145,-75843.454302
162.275652,-4737.318029,-6217.729913,-78294.959896
162.278228,-2220.617826,-1924.535449,-76456.330700
162.280804,-4145.153275,-10066.800811,-78601.398095
162.283380,2368.659014,-1924.535449,-76456.330700
162.285956,-2664.741391,-2220.617826,-76609.549800
162.288532,4737.318029,-296.082377,-77988.521696
162.291108,-1036.288319,-740.205942,-78141.740796
162.293684,8142.265362,5033.400406,-76303.111601
162.296260,3849.070898,1036.288319,-77988.521696
162.298836,6217.729913,3404.947333,-75383.797003
162.301412,4145.153275,-1776.494261,-77988.521696
162.303987,8290.306550,5625.565159,-76915.987999
162.306562,3552.988522,5625.565159,-78448.178995
162.309138,6069.688724,3701.029710,-78294.959896
162.311713,2960.823768,2072.576638,-77222.426198
162.314288,3701.029710,1776.494261,-75690.235202
162.316863,6661.853478,-444.123565,-77835.302597
162.319439,9326.594869,4293.194464,-75230.577904
162.322014,3108.864956,-296.082377,-78601.398095
162.324589,4293.194464,296.082377,-78294.959896
162.327164,2664.741391,2072.576638,-75843.454302
162.329740,3552.988522,-1924.535449,-76303.111601
162.332315,4441.235652,296.082377,-77375.645298
162.334890,1332.370696,2960.823768,-77069.207099
162.337465,7105.977043,3256.906145,-78141.740796
162.340041,5181.441594,3997.112087,-77375.645298
162.342616,6513.812290,4441.235652,-76303.111601
162.345191,8142.265362,-148.041188,-77835.302597
162.347766,10510.924376,4885.359217,-75843.454302
162.350342,4589.276840,4145.153275,-76149.892501
162.352917,7105.977043,2664.741391,-77528.864398
162.355492,-2812.782580,-2368.659014,-78141.740796
162.358067,7105.977043,888.247130,-76303.111601
162.360643,-1480.411884,-2072.576638,-77222.426198
162.363218,-3849.070898,-6217.729913,-75690.235202
162.365793,-296.082377,-2664.741391,-77528.864398
162.368368,296.082377,-4589.276840,-77988.521696
162.370944,-2072.576638,-4885.359217,-77835.302597
162.373519,1184.329507,-5773.606348,-75383.797003
162.376094,-148.041188,-5921.647536,-76303.111601
162.378670,-1184.329507,-3997.112087,-77835.302597
162.381245,-296.082377,-3701.029710,-77375.645298
162.383820,-1480.411884,-592.164754,-77069.207099
162.386395,-1332.370696,-3849.070898,-77069.207099
162.388971,-296.082377,-2812.782580,-77375.645298
162.391546,-1776.494261,-5625.565159,-74770.920605
162.394121,2368.659014,-2368.659014,-76762.768900
162.396696,1924.535449,-3108.864956,-78754.617194
162.399272,3552.988522,-4145.153275,-78754.617194
162.401847,1332.370696,-2220.617826,-76149.892501
162.404422,-1480.411884,-3256.906145,-76456.330700
162.406997,-444.123565,-7254.018232,-76303.111601
162.409572,-2664.741391,-6217.729913,-77835.302597
162.412147,-5033.400406,-3404.947333,-76456.330700
162.414722,-4441.235652,-5181.441594,-77835.302597
162.417297,-2072.576638,-7846.182985,-77528.864398
162.419872,-444.123565,-4737.318029,-77069.207099
162.422447,4589.276840,444.123565,-75537.016103
162.425022,296.082377,-1332.370696,-78141.740796
162.427597,296.082377,-3849.070898,-77528.864398
162.430171,7402.059420,3552.988522,-77988.521696
162.432746,4885.359217,5773.606348,-76149.892501
162.435321,4737.318029,1628.453072,-77222.426198
162.437896,7994.224174,-888.247130,-77375.645298
162.440471,5033.400406,6661.853478,-75996.673402
162.443046,4145.153275,2812.782580,-78754.617194
162.445621,5625.565159,4293.194464,-78448.178995
162.448196,2812.782580,2664.741391,-76915.987999
162.450771,7550.100608,-296.082377,-76149.892501
162.453346,5329.482782,3108.864956,-75843.454302
162.455921,5181.441594,1776.494261,-77835.302597
162.458496,2960.823768,888.247130,-78907.836294
162.461071,5033.400406,3552.988522,-76915.987999
162.463646,-2072.576638,-2220.617826,-77375.645298
162.466221,6809.894666,888.247130,-76609.549800
162.468796,148.041188,0.000000,-76456.330700
162.471370,3997.112087,5181.441594,-77682.083497
162.473945,3256.906145,1184.329507,-77375.645298
162.476520,6661.853478,7402.059420,-77222.426198
162.479095,8438.347739,1628.453072,-78448.178995
162.481670,10807.006753,3552.988522,-77528.864398
162.484245,7550.100608,5181.441594,-76762.768900
162.486820,7994.224174,5181.441594,-76762.768900
162.489395,592.164754,2368.659014,-77528.864398
162.491970,2960.823768,-3256.906145,-78907.836294
162.494545,4441.235652,2516.700203,-75996.673402
162.497120,-6069.688724,-5329.482782,-76915.987999
162.499695,-740.205942,-4885.359217,-77375.645298
162.502270,148.041188,-4293.194464,-78907.836294
162.504845,-592.164754,-4885.359217,-77222.426198
162.507420,740.205942,-5477.523971,-76762.768900
162.509965,-2960.823768,-6069.688724,-75537.016103
162.512510,4885.359217,-7846.182985,-77528.864398
162.515056,-1480.411884,-1776.494261,-77528.864398
162.517601,-2960.823768,-3404.947333,-77682.083497
162.520147,1924.535449,-1480.411884,-79061.055394
162.522692,1184.329507,-2220.617826,-77375.645298
162.525237,-2516.700203,-7105.977043,-78141.740796
162.527783,4145.153275,1480.411884,-74617.701505
162.530328,592.164754,-3256.906145,-78601.398095
162.532873,4145.153275,-2220.617826,-78907.836294
162.535419,-3256.906145,-1036.288319,-77528.864398
162.537964,592.164754,-3404.947333,-75230.577904
162.540510,1036.288319,-6661.853478,-76915.987999
162.543055,-6365.771101,-7402.059420,-76762.768900
162.545600,-2516.700203,-4589.276840,-76609.549800
162.548146,-5921.647536,-5329.482782,-78141.740796
162.550691,-4293.194464,-7254.018232,-76762.768900
162.553237,1036.288319,-1776.494261,-77222.426198
162.555782,3108.864956,-2220.617826,-76609.549800
162.558327,2516.700203,-3701.029710,-77682.083497
162.560873,592.164754,-296.082377,-76915.987999
162.563418,9918.759623,1480.411884,-77988.521696
162.565964,7105.977043,6217.729913,-76609.549800
162.568509,1480.411884,888.247130,-75843.454302
162.571054,7402.059420,4145.153275,-76456.330700
162.573600,3256.906145,3997.112087,-76915.987999
162.576145,7105.977043,3997.112087,-77682.083497
162.578691,2664.741391,3108.864956,-78601.398095
162.581236,5181.441594,1332.370696,-76149.892501
162.583781,4885.359217,2072.576638,-77528.864398
162.586327,8734.430116,740.205942,-75996.673402
162.588872,5773.606348,-1628.453072,-79520.712692
162.591417,6069.688724,3404.947333,-77222.426198
162.593963,592.164754,-1628.453072,-77528.864398
162.596508,6365.771101,1628.453072,-75843.454302
162.599054,2368.659014,1628.453072,-76149.892501
162.601599,5477.523971,4737.318029,-75383.797003
162.604144,3849.070898,-592.164754,-79827.150892
162.606690,3256.906145,5773.606348,-76456.330700
162.609235,8290.306550,6513.812290,-76149.892501
162.611786,9326.594869,1332.370696,-78141.740796
162.614336,12731.542202,5181.441594,-75996.673402
162.616887,7105.977043,1776.494261,-78141.740796
162.619437,7254.018232,2960.823768,-76456.330700
162.621988,-2516.700203,-444.123565,-77988.521696
162.624538,6217.729913,2072.576638,-75690.235202
162.627089,-4441.235652,-3849.070898,-78294.959896
162.629639,-3256.906145,-4293.194464,-75690.235202
162.632190,0.000000,-5477.523971,-78141.740796
162.634740,444.123565,-592.164754,-77528.864398
162.637291,-2664.741391,-8734.430116,-77222.426198
162.639841,1480.411884,-7402.059420,-78141.740796
162.642392,-592.164754,-5477.523971,-76149.892501
162.644942,-740.205942,-5477.523971,-77988.521696
162.647493,-1776.494261,-1480.411884,-76762.768900
162.650043,-3108.864956,-740.205942,-77069.207099
162.652594,-1924.535449,-1036.288319,-76915.987999
162.655144,1184.329507,-2664.741391,-77375.645298
162.657695,1184.329507,-3997.112087,-76149.892501
162.660245,2072.576638,-4737.318029,-77069.207099
162.662796,-592.164754,-3404.947333,-78448.178995
162.665346,-1036.288319,-3108.864956,-77988.521696
162.667897,2812.782580,-3997.112087,-76456.330700
162.670447,-2960.823768,-6069.688724,-76456.330700
162.672998,-1924.535449,-6513.812290,-76456.330700
162.675548,-5773.606348,-6069.688724,-77222.426198
162.678099,-6513.812290,-2960.823768,-76456.330700
162.680649,-4441.235652,-7994.224174,-78601.398095
162.683200,888.247130,-6069.688724,-76915.987999
162.685750,2960.823768,-2220.617826,-76915.987999
162.688301,1628.453072,-740.205942,-75843.454302
162.690851,2516.700203,-4145.153275,-77069.207099
162.693402,11695.253884,3849.070898,-78294.959896
162.695952,1776.494261,3404.947333,-77528.864398
162.698503,3404.947333,3108.864956,-76915.987999
162.701053,5033.400406,888.247130,-78294.959896
162.703604,6809.894666,5477.523971,-76609.549800
162.706154,5477.523971,4145.153275,-77682.083497
162.708705,5181.441594,5921.647536,-77069.207099
162.711255,5033.400406,1924.535449,-77528.864398
162.713781,5625.565159,1036.288319,-76915.987999
162.716307,4293.194464,-1628.453072,-77528.864398
162.718833,5329.482782,1776.494261,-76609.549800
162.721358,3849.070898,2072.576638,-78294.959896
162.723884,3701.029710,-296.082377,-78141.740796
162.726410,592.164754,-148.041188,-76609.549800
162.728936,4885.359217,1628.453072,-75843.454302
162.731461,2516.700203,1184.329507,-78294.959896
162.733987,6809.894666,4589.276840,-78448.178995
162.736513,3108.864956,3849.070898,-77375.645298
162.739039,9178.553681,7402.059420,-76303.111601
162.741564,7550.100608,2664.741391,-77835.302597
162.744090,13619.789333,5033.400406,-76915.987999
162.746616,6809.894666,3849.070898,-77682.083497
162.749142,1776.494261,5329.482782,-75996.673402
162.751667,0.000000,592.164754,-77835.302597
162.754193,3997.112087,148.041188,-78141.740796
162.756719,-5773.606348,-8142.265362,-78141.740796
162.759245,-4293.194464,-5625.565159,-76456.330700
162.761770,888.247130,-6513.812290,-77682.083497
162.764296,0.000000,-4145.153275,-77222.426198
162.766822,-296.082377,-6365.771101,-76915.987999
162.769347,1036.288319,-7698.141797,-77988.521696
162.771873,592.164754,-3404.947333,-76915.987999
162.774399,-296.082377,-2368.659014,-77835.302597
162.776925,740.205942,-148.041188,-77528.864398
162.779450,-2072.576638,-2368.659014,-77375.645298
162.781976,740.205942,-2812.782580,-76303.111601
162.784502,-3701.029710,-4441.235652,-76762.768900
162.787028,4145.153275,-4145.153275,-76149.892501
162.789553,444.123565,-4145.153275,-80286.808190
162.792079,2072.576638,-1480.411884,-77835.302597
162.794605,-1332.370696,-2516.700203,-77528.864398
162.797131,444.123565,-4441.235652,-74770.920605
162.799656,-3997.112087,-5773.606348,-77528.864398
162.802182,-1184.329507,-7698.141797,-76915.987999
162.804708,1480.411884,-4589.276840,-77222.426198
162.807234,-8734.430116,-4145.153275,-77222.426198
162.809759,-1628.453072,-8882.471304,-78754.617194
162.812285,3701.029710,-1628.453072,-77528.864398
162.814820,444.123565,-5477.523971,-76915.987999
162.817355,3849.070898,-740.205942,-76149.892501
162.819889,5033.400406,4441.235652,-76303.111601
162.822424,8142.265362,5033.400406,-79061.055394
162.824959,5033.400406,4145.153275,-77375.645298
162.827493,888.247130,296.082377,-76609.549800
162.830028,7994.224174,3256.906145,-77375.645298
162.832563,2072.576638,888.247130,-78294.959896
162.835098,5773.606348,3404.947333,-76762.768900
162.837632,5625.565159,1036.288319,-78141.740796
162.840167,4737.318029,1480.411884,-75537.016103
162.842702,5625.565159,1480.411884,-77069.207099
162.845236,5625.565159,3552.988522,-75383.797003
162.847771,3997.112087,4737.318029,-78141.740796
162.850306,4441.235652,-2664.741391,-78294.959896
162.852841,1776.494261,-296.082377,-77988.521696
162.855375,2220.617826,148.041188,-75537.016103
162.857910,5033.400406,1776.494261,-78754.617194
162.860445,6217.729913,1628.453072,-79214.274493
162.862979,3849.070898,4441.235652,-76149.892501
162.865514,9474.636058,5033.400406,-76915.987999
162.868049,10214.842000,3997.112087,-78294.959896
162.870584,12139.377449,6957.935855,-75537.016103
162.873118,4589.276840,2960.823768,-77375.645298
162.875653,2812.782580,4885.359217,-76915.987999
162.878188,1332.370696,444.123565,-77069.207099
162.880723,1628.453072,888.247130,-78601.398095
162.883257,-5773.606348,-8586.388927,-76762.768900
162.885792,-592.164754,-3108.864956,-76915.987999
162.888327,-1036.288319,-8290.306550,-78294.959896
162.890861,-444.123565,-6957.935855,-77528.864398
162.893396,1184.329507,-6217.729913,-76915.987999
162.895938,-1332.370696,-9178.553681,-76915.987999
162.898480,2812.782580,-3108.864956,-76915.987999
162.901022,-1924.535449,-4145.153275,-77988.521696
162.903564,444.123565,296.082377,-76609.549800
162.906106,-444.123565,-3552.988522,-77988.521696
162.908649,592.164754,-5329.482782,-76456.330700
162.911191,-2220.617826,-3849.070898,-76149.892501
162.913733,3108.864956,-4441.235652,-76609.549800
162.916275,-148.041188,-6217.729913,-79367.493593
162.918817,2072.576638,1628.453072,-75537.016103
162.921359,-3552.988522,-7254.018232,-76762.768900
162.923901,1184.329507,-2220.617826,-74464.482406
162.926443,-4885.359217,-9770.718434,-77682.083497
162.928985,-2368.659014,-6365.771101,-76762.768900
162.931527,-6957.935855,-6957.935855,-77375.645298
162.934069,-3701.029710,-5477.523971,-77528.864398
162.936611,-740.205942,-5625.565159,-78294.959896
162.939153,5181.441594,-444.123565,-75996.673402
162.941695,-1776.494261,-1332.370696,-75996.673402
162.944237,4145.153275,-3404.947333,-76456.330700
162.946779,4441.235652,7105.977043,-77375.645298
162.949322,6217.729913,1184.329507,-77375.645298
162.951864,3404.947333,1184.329507,-77528.864398
162.954406,5625.565159,5477.523971,-77069.207099
162.956948,4293.194464,1480.411884,-77988.521696
162.959490,7698.141797,6957.935855,-77222.426198
162.962032,3256.906145,1628.453072,-76762.768900
162.964574,5477.523971,1924.535449,-76915.987999
162.967116,148.041188,-2516.700203,-77682.083497
162.969658,8882.471304,1480.411884,-77222.426198
162.972200,3997.112087,6069.688724,-76915.987999
162.974742,3997.112087,592.164754,-78141.740796
162.977284,-148.041188,-2072.576638,-77375.645298
162.979826,5181.441594,2812.782580,-75996.673402
162.982368,2368.659014,2368.659014,-77069.207099
162.984910,7254.018232,3108.864956,-78907.836294
162.987452,2664.741391,3552.988522,-78141.740796
162.989995,7994.224174,4589.276840,-76915.987999
162.992537,13027.624579,5773.606348,-78141.740796
162.995079,10510.924376,6661.853478,-76149.892501
162.997627,6957.935855,2072.576638,-77375.645298
163.000176,3552.988522,6957.935855,-75230.577904
163.002725,-1628.453072,2516.700203,-77835.302597
163.005274,444.123565,-1924.535449,-78141.740796
163.007822,-4293.194464,-4885.359217,-77222.426198
163.010371,-4589.276840,-6513.812290,-76303.111601
163.012920,2960.823768,-5625.565159,-77835.302597
163.015469,-3404.947333,-7105.977043,-77069.207099
163.018017,2220.617826,-8438.347739,-77375.645298
163.020566,-740.205942,-6513.812290,-78141.740796
163.023115,296.082377,-5625.565159,-77069.207099
163.025664,148.041188,-1776.494261,-77988.521696
163.028212,-1480.411884,-3108.864956,-76762.768900
163.030761,-1332.370696,-2812.782580,-77375.645298
163.033310,-296.082377,1036.288319,-76456.330700
163.035859,-1924.535449,-8290.306550,-76609.549800
163.038407,3849.070898,444.123565,-76456.330700
163.040956,-148.041188,-4737.318029,-77682.083497
163.043505,2960.823768,-1480.411884,-78141.740796
163.046053,-2368.659014,-3997.112087,-75843.454302
163.048602,-1184.329507,-5921.647536,-75383.797003
163.051151,-2072.576638,-5329.482782,-77069.207099
163.053700,-7402.059420,-8290.306550,-78141.740796
163.056248,-6513.812290,-6217.729913,-77835.302597
163.058797,-1924.535449,-8290.306550,-78448.178995
163.061346,4293.194464,-4885.359217,-77682.083497
163.063895,2812.782580,-4441.235652,-77528.864398
163.066443,0.000000,-444.123565,-75383.797003
163.068992,8438.347739,1332.370696,-78294.959896
163.071541,6513.812290,6365.771101,-77835.302597
163.074090,1776.494261,5329.482782,-77222.426198
163.076638,7105.977043,888.247130,-77988.521696
163.079187,5181.441594,8586.388927,-75843.454302
163.081736,4145.153275,0.000000,-78601.398095
163.084285,7846.182985,6957.935855,-77835.302597
163.086833,0.000000,148.041188,-76149.892501
163.089382,6809.894666,-444.123565,-76915.987999
163.091931,4737.318029,-444.123565,-78448.178995
163.094480,5477.523971,2812.782580,-76609.549800
163.097028,5181.441594,0.000000,-78754.617194
163.099578,3108.864956,888.247130,-77682.083497
163.102132,148.041188,0.000000,-76149.892501
163.104686,6513.812290,2368.659014,-77222.426198
163.107239,2516.700203,3404.947333,-77222.426198
163.109793,7105.977043,1924.535449,-77988.521696
163.112347,4885.359217,5033.400406,-78141.740796
163.114900,7105.977043,5625.565159,-75843.454302
163.117454,14063.912898,4293.194464,-77988.521696
163.120008,9918.759623,3701.029710,-77835.302597
163.122562,0.000000,6069.688724,-75230.577904
163.125115,1776.494261,-1184.329507,-77682.083497
163.127669,3849.070898,1184.329507,-77528.864398
163.130223,-5181.441594,-6661.853478,-78141.740796
163.132777,-5773.606348,-4885.359217,-77528.864398
163.135330,-1776.494261,-7698.141797,-76456.330700
163.137884,888.247130,-5033.400406,-77375.645298
163.140438,-1036.288319,-7846.182985,-76456.330700
163.142991,740.205942,-5329.482782,-77835.302597
163.145545,1332.370696,-1628.453072,-77835.302597
163.148099,-2220.617826,-4293.194464,-78448.178995
163.150653,-1036.288319,0.000000,-76303.111601
163.153206,-5477.523971,-2960.823768,-77988.521696
163.155760,3256.906145,-1332.370696,-76915.987999
163.158314,-2664.741391,-4737.318029,-78601.398095
163.160867,3108.864956,3849.070898,-75230.577904
163.163421,740.205942,-4441.235652,-79673.931792
163.165975,2664.741391,444.123565,-76915.987999
163.168529,-3701.029710,-7105.977043,-77375.645298
163.171082,2072.576638,-4145.153275,-75230.577904
163.173636,-4441.235652,-7550.100608,-76762.768900
163.176190,-5477.523971,-6809.894666,-76915.987999
163.178744,-7994.224174,-6957.935855,-78448.178995
163.181297,-3404.947333,-8142.265362,-76915.987999
163.183851,4589.276840,-4293.194464,-78141.740796
163.186405,0.000000,-4737.318029,-76915.987999
163.188958,2368.659014,-3404.947333,-76915.987999
163.191512,8882.471304,5625.565159,-76609.549800
163.194066,7550.100608,6365.771101,-77528.864398
163.196620,5329.482782,8142.265362,-77069.207099
163.199173,2072.576638,2368.659014,-77222.426198
163.201702,5773.606348,5181.441594,-77835.302597
163.204232,4589.276840,4737.318029,-78141.740796
163.206761,2072.576638,2960.823768,-77375.645298
163.209290,8438.347739,-1332.370696,-77222.426198
163.211819,5329.482782,888.247130,-76456.330700
163.214348,4145.153275,1480.411884,-76456.330700
163.216877,6217.729913,4145.153275,-77682.083497
163.219406,1480.411884,-148.041188,-77682.083497
163.221935,4737.318029,2960.823768,-77222.426198
163.224464,592.164754,-1036.288319,-77222.426198
163.226993,6809.894666,4293.194464,-75077.358804
163.229522,5625.565159,4441.235652,-76609.549800
163.232052,3404.947333,2220.617826,-79367.493593
163.234581,9326.594869,6365.771101,-76762.768900
163.237110,10214.842000,5625.565159,-76762.768900
163.239639,15248.242405,5181.441594,-76303.111601
163.242168,6809.894666,3404.947333,-77682.083497
163.244697,3997.112087,1036.288319,-76915.987999
163.247226,-444.123565,4293.194464,-76456.330700
163.249755,-592.164754,-740.205942,-77375.645298
163.252284,-6217.729913,-2664.741391,-77682.083497
163.254813,-2812.782580,-5329.482782,-77069.207099
163.257342,888.247130,-3997.112087,-75996.673402
163.259872,444.123565,-7402.059420,-77222.426198
163.262401,-1332.370696,-8586.388927,-76762.768900
163.264930,2516.700203,-6957.935855,-77682.083497
163.267459,-740.205942,-3108.864956,-78448.178995
163.269988,-888.247130,-2812.782580,-77835.302597
163.272517,-4293.194464,592.164754,-76915.987999
163.275046,-3997.112087,-6069.688724,-76915.987999
163.277575,1628.453072,-296.082377,-77835.302597
163.280104,148.041188,-5625.565159,-77069.207099
163.282633,2368.659014,-1776.494261,-79061.055394
163.285162,1036.288319,-444.123565,-78907.836294
163.287692,-2220.617826,-6661.853478,-77682.083497
163.290221,3108.864956,-2516.700203,-75843.454302
163.292750,-6217.729913,-7994.224174,-76609.549800
163.295279,-2516.700203,-7254.018232,-76456.330700
163.297808,-7994.224174,-6069.688724,-77528.864398
163.300337,-7698.141797,-6661.853478,-76762.768900
163.302847,2220.617826,-6365.771101,-79520.712692
163.305356,3404.947333,-2368.659014,-76762.768900
163.307866,1184.329507,-7105.977043,-77375.645298
163.310376,8290.306550,6365.771101,-75690.235202
163.312885,5625.565159,3997.112087,-76149.892501
163.315395,10066.800811,4441.235652,-77988.521696
163.317905,1184.329507,3108.864956,-78141.740796
163.320415,6069.688724,6365.771101,-76303.111601
163.322924,5181.441594,2960.823768,-78294.959896
163.325434,4293.194464,3256.906145,-76915.987999
163.327944,5921.647536,1036.288319,-77222.426198
163.330453,6365.771101,1924.535449,-76149.892501
163.332963,2664.741391,592.164754,-77222.426198
163.335473,9474.636058,3849.070898,-77069.207099
163.337983,-444.123565,148.041188,-77528.864398
163.340492,4145.153275,1480.411884,-77375.645298
163.343002,1332.370696,-444.123565,-76762.768900
163.345512,5625.565159,2812.782580,-75690.235202
163.348021,4293.194464,3108.864956,-78294.959896
163.350531,6069.688724,1480.411884,-78601.398095
163.353041,7105.977043,6661.853478,-77988.521696
163.355550,10955.047942,5477.523971,-77375.645298
163.358060,13619.789333,5329.482782,-77375.645298
163.360570,6809.894666,4885.359217,-77222.426198
163.363080,4737.318029,296.082377,-77375.645298
163.365589,5921.647536,5921.647536,-76762.768900
163.368099,-7254.018232,-5033.400406,-77375.645298
163.370609,-2812.782580,-2220.617826,-76762.768900
163.373118,-740.205942,-7994.224174,-77835.302597
163.375628,-888.247130,-2516.700203,-75996.673402
163.378138,592.164754,-9474.636058,-76915.987999
163.380647,-296.082377,-4737.318029,-76762.768900
163.383157,-444.123565,-7105.977043,-76609.549800
163.385667,-444.123565,-592.164754,-78448.178995
163.388177,-2812.782580,-1776.494261,-76609.549800
163.390686,-3108.864956,-2072.576638,-79061.055394
163.393196,1924.535449,-444.123565,-75077.358804
163.395706,296.082377,-6217.729913,-77375.645298
163.398215,3404.947333,-296.082377,-76303.111601
163.400725,-1776.494261,-2664.741391,-77069.207099
163.403248,3404.947333,-296.082377,-77375.645298
163.405771,-888.247130,-4441.235652,-77988.521696
163.408294,-1184.329507,-7550.100608,-74924.139704
163.410817,-2516.700203,-7254.018232,-76456.330700
163.413340,-7550.100608,-10066.800811,-76762.768900
163.415863,-5773.606348,-6809.894666,-78448.178995
163.418386,-4293.194464,-5033.400406,-77528.864398
163.420910,1628.453072,-2368.659014,-77222.426198
163.423433,2516.700203,-3997.112087,-77375.645298
163.425956,1924.535449,-1480.411884,-75383.797003
163.428479,10955.047942,5625.565159,-76915.987999
163.431002,7254.018232,7846.182985,-76303.111601
163.433525,3108.864956,888.247130,-77988.521696
163.436048,5921.647536,5625.565159,-77222.426198
163.438571,3701.029710,4145.153275,-77375.645298
163.441094,7105.977043,6069.688724,-76915.987999
163.443617,3108.864956,2072.576638,-77069.207099
163.446140,4441.235652,592.164754,-75690.235202
163.448663,3552.988522,-3256.906145,-78601.398095
163.451186,9326.594869,1776.494261,-76456.330700
163.453709,1480.411884,-1184.329507,-78754.617194
163.456233,4441.235652,0.000000,-77375.645298
163.458756,888.247130,444.123565,-77069.207099
163.461279,5477.523971,2072.576638,-76762.768900
163.463802,4737.318029,3404.947333,-76915.987999
163.466325,4441.235652,1184.329507,-77988.521696
163.468848,6809.894666,2664.741391,-77988.521696
163.471371,9918.759623,7698.141797,-75996.673402
163.473894,12287.418637,5921.647536,-76762.768900
163.476417,9918.759623,4885.359217,-77528.864398
163.478940,1776.494261,2516.700203,-76915.987999
163.481463,4441.235652,2664.741391,-77222.426198
163.483986,-3256.906145,1480.411884,-77222.426198
163.486509,-9178.553681,-6217.729913,-77835.302597
163.489032,-888.247130,-6809.894666,-78754.617194
163.491555,-2368.659014,-6069.688724,-76762.768900
163.494079,-2220.617826,-8586.388927,-76915.987999
163.496602,2664.741391,-10066.800811,-77222.426198
163.499125,0.000000,-6809.894666,-76915.987999
163.501648,1924.535449,-4293.194464,-77682.083497
163.504182,-2516.700203,2072.576638,-77375.645298
163.506717,-3404.947333,-4145.153275,-79214.274493
163.509252,1480.411884,-2072.576638,-78141.740796
163.511786,1776.494261,-3108.864956,-76149.892501
163.514321,-1036.288319,-740.205942,-76609.549800
163.516856,3108.864956,-2368.659014,-79214.274493
163.519390,-1480.411884,-3256.906145,-79214.274493
163.521925,1480.411884,-3701.029710,-76915.987999
163.524459,-1776.494261,-6217.729913,-76915.987999
163.526994,-4293.194464,-6957.935855,-74770.920605
163.529529,-6069.688724,-7846.182985,-76762.768900
163.532063,-8290.306550,-9178.553681,-76915.987999
163.534598,-3404.947333,-6365.771101,-77682.083497
163.537133,2368.659014,-4293.194464,-78448.178995
163.539667,1036.288319,-3849.070898,-77528.864398
163.542202,8142.265362,1480.411884,-76915.987999
163.544737,9918.759623,7550.100608,-74924.139704
163.547271,8734.430116,6069.688724,-77069.207099
163.549806,4885.359217,4737.318029,-78754.617194
163.552340,5329.482782,3997.112087,-77375.645298
163.554875,4293.194464,5181.441594,-78294.959896
163.557410,5921.647536,1628.453072,-77069.207099
163.559944,4293.194464,3108.864956,-76762.768900
163.562479,6661.853478,-148.041188,-75537.016103
163.565014,6513.812290,1184.329507,-76915.987999
163.567548,4145.153275,1776.494261,-77682.083497
163.570083,3552.988522,6217.729913,-76303.111601
163.572618,2960.823768,-888.247130,-78601.398095
163.575152,1924.535449,888.247130,-76456.330700
163.577687,5033.400406,4441.235652,-75077.358804
163.580222,5033.400406,1036.288319,-77528.864398
163.582756,8290.306550,5181.441594,-77988.521696
163.585291,4589.276840,3552.988522,-79367.493593
163.587825,14359.995275,8290.306550,-77528.864398
163.590360,8882.471304,6217.729913,-77375.645298
163.592895,8734.430116,3256.906145,-76303.111601
163.595429,4589.276840,2516.700203,-77069.207099
163.597964,2072.576638,5625.565159,-76456.330700
163.600499,-4589.276840,-4293.194464,-78294.959896
163.603033,-5773.606348,-2368.659014,-78448.178995
163.605577,-2072.576638,-6661.853478,-78294.959896
163.608121,-1628.453072,-5773.606348,-76456.330700
163.610664,-1924.535449,-11251.130318,-77069.207099
163.613208,2664.741391,-10510.924376,-77375.645298
163.615751,-592.164754,-6957.935855,-77682.083497
163.618295,-1480.411884,-3256.906145,-78448.178995
163.620839,-2812.782580,-1776.494261,-77835.302597
163.623382,148.041188,-3404.947333,-77988.521696
163.625926,444.123565,-2960.823768,-75230.577904
163.628470,-1776.494261,-2220.617826,-75383.797003
163.631013,2812.782580,888.247130,-76609.549800
163.633557,2664.741391,-740.205942,-79673.931792
163.636100,-740.205942,-2812.782580,-78754.617194
163.638644,-1036.288319,-4441.235652,-77682.083497
163.641188,-3108.864956,-5921.647536,-74770.920605
163.643731,-4293.194464,-11103.089130,-77069.207099
163.646275,-6513.812290,-8438.347739,-75843.454302
163.648819,-5033.400406,-7550.100608,-78294.959896
163.651362,1184.329507,-1184.329507,-78601.398095
163.653906,-1776.494261,-4589.276840,-76762.768900
163.656449,5181.441594,-1776.494261,-76303.111601
163.658993,9326.594869,3701.029710,-76303.111601
163.661537,7994.224174,2960.823768,-75996.673402
163.664080,8882.471304,6217.729913,-77375.645298
163.666624,6513.812290,6957.935855,-76915.987999
163.669168,6365.771101,7254.018232,-77988.521696
163.671711,2812.782580,4885.359217,-77682.083497
163.674255,4589.276840,444.123565,-76456.330700
163.676798,5181.441594,1036.288319,-75996.673402
163.679342,5773.606348,-2072.576638,-76609.549800
163.681886,3997.112087,-1184.329507,-78754.617194
163.684429,7550.100608,3701.029710,-77988.521696
163.686973,1036.288319,-5921.647536,-78754.617194
163.689517,5033.400406,3849.070898,-76915.987999
163.692060,148.041188,-2368.659014,-76915.987999
163.694604,7550.100608,3997.112087,-76149.892501
163.697147,2960.823768,4293.194464,-77682.083497
163.699691,6365.771101,5181.441594,-78754.617194
163.702235,12287.418637,6661.853478,-79520.712692
163.704778,10658.965565,7846.182985,-77222.426198
163.707330,2960.823768,4441.235652,-76303.111601
163.709881,5329.482782,1628.453072,-77375.645298
163.712433,3552.988522,3404.947333,-76303.111601
163.714984,-5181.441594,-3256.906145,-77988.521696
163.717535,-5625.565159,-4293.194464,-77222.426198
163.720087,-4737.318029,-6661.853478,-79214.274493
163.722638,-444.123565,-9030.512492,-77835.302597
163.725190,-1776.494261,-9474.636058,-76915.987999
163.727741,-1036.288319,-8734.430116,-75690.235202
163.730292,3404.947333,-6513.812290,-76915.987999
163.732844,-2368.659014,-2220.617826,-78294.959896
163.735395,-2812.782580,-3997.112087,-78141.740796
163.737947,-1776.494261,888.247130,-75230.577904
163.740498,-1036.288319,-4441.235652,-76915.987999
163.743049,1628.453072,-2368.659014,-76456.330700
163.745601,-1332.370696,3108.864956,-76149.892501
163.748152,592.164754,-6957.935855,-80286.808190
163.750704,3997.112087,2516.700203,-78601.398095
163.753255,-4145.153275,-6217.729913,-77375.645298
163.755806,296.082377,-4145.153275,-75537.016103
163.758358,-9918.759623,-10955.047942,-76303.111601
163.760909,-6069.688724,-10214.842000,-76456.330700
163.763461,-3404.947333,-5773.606348,-79367.493593
163.766012,0.000000,-2220.617826,-78601.398095
163.768563,-1184.329507,-8290.306550,-77988.521696
163.771115,10362.883188,1776.494261,-75996.673402
163.773666,6661.853478,6661.853478,-75537.016103
163.776218,11399.171507,8290.306550,-75383.797003
163.778769,2664.741391,4293.194464,-77528.864398
163.781320,5181.441594,5477.523971,-77988.521696
163.783872,4737.318029,3849.070898,-78448.178995
163.786423,3108.864956,4293.194464,-77222.426198
163.788975,6513.812290,-1332.370696,-77069.207099
163.791526,7698.141797,5181.441594,-74924.139704
163.794077,2664.741391,-1036.288319,-76456.330700
163.796629,4293.194464,2220.617826,-77988.521696
163.799180,4589.276840,3256.906145,-77069.207099
163.801732,-1332.370696,-592.164754,-76915.987999
163.804283,3701.029710,2368.659014,-77069.207099
163.806834,3701.029710,1628.453072,-76609.549800
163.809363,6809.894666,1332.370696,-77222.426198
163.811892,4293.194464,4589.276840,-77222.426198
163.814421,9622.677246,7698.141797,-77528.864398
163.816950,16136.489536,6069.688724,-78141.740796
163.819479,9622.677246,5625.565159,-76303.111601
163.822008,3552.988522,3997.112087,-75843.454302
163.824537,5181.441594,4145.153275,-76149.892501
163.827066,-7105.977043,-6365.771101,-78754.617194
163.829594,-6661.853478,-740.205942,-76609.549800
163.832123,-4293.194464,-10955.047942,-79827.150892
163.834652,444.123565,-5329.482782,-77069.207099
163.837181,-4885.359217,-10362.883188,-75996.673402
163.839710,2072.576638,-5477.523971,-75077.358804
163.842239,-148.041188,-8882.471304,-77988.521696
163.844768,1184.329507,-2664.741391,-78601.398095
163.847297,-2516.700203,-444.123565,-78601.398095
163.849826,-1628.453072,-444.123565,-76762.768900
163.852355,-2812.782580,4145.153275,-75077.358804
163.854884,1924.535449,-2812.782580,-77682.083497
163.857412,1480.411884,-2072.576638,-77682.083497
163.859941,2368.659014,-1480.411884,-77222.426198
163.862470,-444.123565,-2960.823768,-79214.274493
163.864999,-1184.329507,-1924.535449,-75383.797003
163.867528,-2812.782580,-9030.512492,-75843.454302
163.870057,-6513.812290,-9622.677246,-75690.235202
163.872586,-8586.388927,-10214.842000,-77528.864398
163.875115,-2220.617826,-3997.112087,-78294.959896
163.877644,-2072.576638,1184.329507,-77222.426198
163.880173,2220.617826,-3701.029710,-77835.302597
163.882701,9326.594869,7254.018232,-76609.549800
163.885230,6365.771101,2368.659014,-75383.797003
163.887759,10510.924376,6661.853478,-76609.549800
163.890288,6069.688724,1480.411884,-77528.864398
163.892817,8142.265362,7402.059420,-77682.083497
163.895346,3552.988522,3404.947333,-78448.178995
163.897875,5329.482782,1628.453072,-77835.302597
163.900404,4293.194464,2516.700203,-76149.892501
163.902933,3108.864956,-444.123565,-75383.797003
163.905462,7254.018232,3108.864956,-75843.454302
163.907990,4589.276840,2960.823768,-77222.426198
163.910530,2664.741391,2960.823768,-77528.864398
163.913070,3701.029710,1332.370696,-79367.493593
163.915609,888.247130,2516.700203,-77528.864398
163.918149,6365.771101,-1924.535449,-77528.864398
163.920688,4589.276840,5773.606348,-76456.330700
163.923228,6809.894666,1628.453072,-76609.549800
163.925767,13175.665768,12139.377449,-78141.740796
163.928307,9030.512492,6365.771101,-77682.083497
163.930847,11103.089130,4441.235652,-77528.864398
163.933386,1924.535449,888.247130,-76915.987999
163.935926,2664.741391,2516.700203,-75077.358804
163.938465,-3108.864956,-5625.565159,-79673.931792
163.941005,-8586.388927,-3552.988522,-77682.083497
163.943544,-2516.700203,-9326.594869,-78907.836294
163.946084,2072.576638,-4589.276840,-78294.959896
163.948624,-3849.070898,-11399.171507,-77222.426198
163.951163,2220.617826,-6217.729913,-74770.920605
163.953703,-1776.494261,-8290.306550,-76762.768900
163.956242,3701.029710,-2812.782580,-78907.836294
163.958782,-1184.329507,2072.576638,-77682.083497
163.961321,-3404.947333,-3256.906145,-78907.836294
163.963861,1628.453072,-2516.700203,-77222.426198
163.966401,-148.041188,-592.164754,-75077.358804
163.968940,-148.041188,-2516.700203,-77069.207099
163.971480,2072.576638,-1776.494261,-79214.274493
163.974019,592.164754,-4441.235652,-78601.398095
163.976559,-296.082377,-4589.276840,-76762.768900
163.979098,-7698.141797,-9474.636058,-76149.892501
163.981638,-7105.977043,-11547.212695,-76149.892501
163.984178,-3849.070898,-7698.141797,-77375.645298
163.986717,-2072.576638,-3108.864956,-77988.521696
163.989257,148.041188,3108.864956,-77682.083497
163.991796,740.205942,-1924.535449,-76456.330700
163.994336,13175.665768,5477.523971,-75537.016103
163.996875,6809.894666,4737.318029,-75690.235202
163.999415,7402.059420,2368.659014,-76762.768900
164.001955,5329.482782,2368.659014,-79061.055394
164.004494,6069.688724,9030.512492,-76915.987999
164.007034,5329.482782,4293.194464,-78754.617194
164.009573,3552.988522,6809.894666,-76609.549800
164.012122,4293.194464,-2664.741391,-76149.892501
164.014670,7402.059420,148.041188,-74924.139704
164.017219,3701.029710,-1628.453072,-77069.207099
164.019768,4737.318029,1184.329507,-78601.398095
164.022316,6957.935855,3404.947333,-77528.864398
164.024865,1480.411884,-296.082377,-78294.959896
164.027413,5477.523971,3404.947333,-75996.673402
164.029962,3701.029710,2220.617826,-75077.358804
164.032511,6661.853478,2664.741391,-77682.083497
164.035059,10807.006753,7698.141797,-78448.178995
164.037608,10510.924376,6957.935855,-78448.178995
164.040156,11695.253884,7698.141797,-77222.426198
164.042705,4589.276840,-1184.329507,-77069.207099
164.045253,6809.894666,4737.318029,-75996.673402
164.047802,-2220.617826,-888.247130,-76762.768900
164.050351,-6365.771101,-3849.070898,-76762.768900
164.052899,-5033.400406,-3849.070898,-78754.617194
164.055448,-2220.617826,-4145.153275,-77222.426198
164.057996,-1924.535449,-10658.965565,-78448.178995
164.060545,1628.453072,-9770.718434,-74464.482406
164.063093,-740.205942,-8586.388927,-76609.549800
164.065642,1480.411884,-7105.977043,-77682.083497
164.068191,592.164754,3552.988522,-76762.768900
164.070739,-2516.700203,888.247130,-78448.178995
164.073288,-296.082377,-2368.659014,-77375.645298
164.075836,-2220.617826,-5181.441594,-75537.016103
164.078385,1036.288319,-1036.288319,-75537.016103
164.080934,1480.411884,-5033.400406,-76762.768900
164.083482,-296.082377,-3404.947333,-80133.589091
164.086031,-1776.494261,-5921.647536,-77988.521696
164.088579,-3997.112087,-6069.688724,-76762.768900
164.091128,-7994.224174,-9474.636058,-75690.235202
164.093688,-4293.194464,-9622.677246,-76915.987999
164.096244,-3256.906145,-1036.288319,-76456.330700
164.098800,296.082377,-3997.112087,-77988.521696
164.101356,1036.288319,-296.082377,-78294.959896
164.103912,6809.894666,740.205942,-76915.987999
164.106468,12583.501014,6661.853478,-75383.797003
164.109025,6513.812290,4737.318029,-77222.426198
164.111581,3849.070898,4293.194464,-76303.111601
164.114137,7402.059420,4885.359217,-79520.712692
164.116693,3404.947333,6661.853478,-77528.864398
164.119249,4885.359217,592.164754,-77682.083497
164.121805,7105.977043,1184.329507,-75537.016103
164.124362,3552.988522,-2072.576638,-77222.426198
164.126918,5477.523971,-3997.112087,-77988.521696
164.129474,4589.276840,6513.812290,-77222.426198
164.132030,1480.411884,-2072.576638,-79367.493593
164.134586,5329.482782,-592.164754,-78448.178995
164.137142,2220.617826,4589.276840,-75230.577904
164.139699,1776.494261,-148.041188,-76762.768900
164.142255,10510.924376,5329.482782,-76762.768900
164.144811,6809.894666,5181.441594,-78754.617194
164.147367,16728.654289,9918.759623,-77682.083497
164.149923,6809.894666,7550.100608,-77682.083497
164.152479,4737.318029,444.123565,-76456.330700
164.155036,6217.729913,1924.535449,-76915.987999
164.157592,-7254.018232,-3701.029710,-76609.549800
164.160148,-8734.430116,-4885.359217,-77835.302597
164.162704,-4293.194464,-7550.100608,-79673.931792
164.165260,-888.247130,-6069.688724,-77069.207099
164.167816,-888.247130,-9326.594869,-76915.987999
164.170373,-296.082377,-9474.636058,-74924.139704
164.172929,148.041188,-6957.935855,-76762.768900
164.175485,-148.041188,-3701.029710,-77988.521696
164.178041,2812.782580,-444.123565,-79673.931792
164.180597,-2368.659014,-888.247130,-78907.836294
164.183153,148.041188,-1332.370696,-76762.768900
164.185710,-444.123565,-3404.947333,-75537.016103
164.188266,740.205942,-2072.576638,-76149.892501
164.190822,1924.535449,-6365.771101,-79827.150892
164.193378,-2220.617826,-9474.636058,-80286.808190
164.195940,-2220.617826,-3997.112087,-76149.892501
164.198502,-5181.441594,-12435.459826,-76456.330700
164.201063,-4293.194464,-5773.606348,-75690.235202
164.203625,-9030.512492,-7105.977043,-77528.864398
164.206187,1924.535449,148.041188,-78294.959896
164.208749,-5773.606348,-4737.318029,-78294.959896
164.211310,9030.512492,296.082377,-77682.083497
164.213872,11547.212695,4145.153275,-77835.302597
164.216434,9770.718434,6957.935855,-74004.825107
164.218996,6661.853478,3256.906145,-76149.892501
164.221558,7254.018232,8290.306550,-77222.426198
164.224119,2516.700203,4293.194464,-79827.150892
164.226681,8290.306550,4885.359217,-78141.740796
164.229243,-592.164754,1184.329507,-75843.454302
164.231805,6809.894666,-4145.153275,-76609.549800
164.234366,8734.430116,-296.082377,-74924.139704
164.236928,3404.947333,-740.205942,-77222.426198
164.239490,5921.647536,1924.535449,-78601.398095
164.242052,4293.194464,1924.535449,-77375.645298
164.244613,1776.494261,888.247130,-76149.892501
164.247175,4293.194464,2812.782580,-75230.577904
164.249737,3256.906145,5773.606348,-75537.016103
164.252299,11399.171507,2220.617826,-77375.645298
164.254860,14359.995275,10510.924376,-78294.959896
164.257422,8438.347739,6217.729913,-76456.330700
164.259984,6513.812290,3552.988522,-77069.207099
164.262546,6069.688724,3404.947333,-75383.797003
164.265108,-6217.729913,-4885.359217,-77222.426198
164.267669,-7698.141797,-8586.388927,-77222.426198
164.270231,-3552.988522,-3256.906145,-77375.645298
164.272793,-3849.070898,-6069.688724,-78141.740796
164.275355,-296.082377,-9178.553681,-77682.083497
164.277916,740.205942,-6661.853478,-74770.920605
164.280478,-592.164754,-9178.553681,-76609.549800
164.283040,592.164754,-3108.864956,-77528.864398
164.285602,-4589.276840,-1036.288319,-79061.055394
164.288163,1924.535449,3404.947333,-74770.920605
164.290725,-3849.070898,-1924.535449,-75996.673402
164.293287,2812.782580,-1036.288319,-74464.482406
164.295849,1036.288319,-7254.018232,-78294.959896
164.298415,2960.823768,148.041188,-76303.111601
164.300982,-2664.741391,-7254.018232,-80133.589091
164.303549,740.205942,-2664.741391,-75843.454302
164.306116,-6809.894666,-6217.729913,-75383.797003
164.308682,-6217.729913,-8882.471304,-76762.768900
164.311249,-5625.565159,-9030.512492,-77528.864398
164.313816,-740.205942,-3108.864956,-78294.959896
164.316382,296.082377,-4145.153275,-77988.521696
164.318949,6809.894666,5625.565159,-76762.768900
164.321516,11695.253884,2812.782580,-77528.864398
164.324083,10955.047942,7105.977043,-75690.235202
164.326649,2960.823768,3404.947333,-75537.016103
164.329216,6513.812290,7550.100608,-77528.864398
164.331783,4441.235652,6513.812290,-79520.712692
164.334349,2072.576638,5921.647536,-78141.740796
164.336916,5477.523971,592.164754,-77222.426198
164.339483,8438.347739,-444.123565,-75537.016103
164.342050,3256.906145,-1776.494261,-77528.864398
164.344616,4737.318029,-592.164754,-76609.549800
164.347183,5329.482782,3552.988522,-77222.426198
164.349750,2072.576638,1628.453072,-77988.521696
164.352316,3552.988522,2664.741391,-76915.987999
164.354883,4589.276840,1924.535449,-76303.111601
164.357450,7698.141797,2516.700203,-76915.987999
164.360017,11547.212695,6809.894666,-77835.302597
164.362583,11103.089130,8734.430116,-78141.740796
164.365150,6661.853478,3404.947333,-76456.330700
164.367717,9178.553681,3108.864956,-77069.207099
164.370283,1776.494261,3849.070898,-76762.768900
164.372850,-3849.070898,-6809.894666,-77528.864398
164.375417,-6513.812290,-2072.576638,-76456.330700
164.377984,-6809.894666,-9474.636058,-78294.959896
164.380550,2516.700203,-5329.482782,-77682.083497
164.383117,-4145.153275,-10807.006753,-77528.864398
164.385684,4885.359217,-7105.977043,-75077.358804
164.388250,-592.164754,-8438.347739,-77069.207099
164.390817,-1480.411884,-148.041188,-76456.330700
164.393384,-3552.988522,888.247130,-77222.426198
164.395951,444.123565,-148.041188,-77528.864398
164.398517,-3404.947333,-1924.535449,-77528.864398
164.401087,3108.864956,-1184.329507,-76609.549800
164.403657,1184.329507,-3256.906145,-77069.207099
164.406227,592.164754,-4589.276840,-77682.083497
164.408797,-1480.411884,-6365.771101,-78448.178995
164.411368,-2960.823768,-6661.853478,-75996.673402
164.413938,-5181.441594,-6217.729913,-75383.797003
164.416508,-8438.347739,-10066.800811,-75996.673402
164.419078,-888.247130,-7846.182985,-77069.207099
164.421648,-1332.370696,-2960.823768,-78754.617194
164.424218,592.164754,-4293.194464,-77069.207099
164.426788,9326.594869,6661.853478,-77835.302597
164.429358,11547.212695,2220.617826,-77528.864398
164.431928,9030.512492,7698.141797,-76303.111601
164.434498,5329.482782,5773.606348,-75077.358804
164.437068,6069.688724,14508.036463,-76915.987999
164.439638,1184.329507,5773.606348,-79367.493593
164.442208,5329.482782,2812.782580,-77375.645298
164.444778,4885.359217,-1184.329507,-76915.987999
164.447348,3108.864956,-444.123565,-75383.797003
164.449918,6365.771101,-1480.411884,-77835.302597
164.452488,2516.700203,1036.288319,-78141.740796
164.455058,5773.606348,444.123565,-78448.178995
164.457628,4589.276840,1776.494261,-77835.302597
164.460199,3849.070898,1776.494261,-76303.111601
164.462769,6513.812290,2664.741391,-76303.111601
164.465339,10214.842000,7402.059420,-76762.768900
164.467909,9918.759623,4145.153275,-79214.274493
164.470479,14359.995275,7846.182985,-78601.398095
164.473049,4293.194464,3701.029710,-77222.426198
164.475619,6069.688724,740.205942,-76149.892501
164.478189,-4145.153275,-6809.894666,-79061.055394
164.480759,-7550.100608,-5329.482782,-75690.235202
164.483329,-4441.235652,-4145.153275,-77682.083497
164.485899,-3108.864956,-5773.606348,-77682.083497
164.488469,-2960.823768,-8438.347739,-77835.302597
164.491039,888.247130,-12139.377449,-75690.235202
164.493609,-2368.659014,-7105.977043,-75690.235202
164.496179,-1332.370696,-2960.823768,-76609.549800
164.498749,-2516.700203,-296.082377,-79367.493593
164.501319,148.041188,-1924.535449,-79827.150892
164.503892,-1332.370696,592.164754,-76456.330700
164.506465,1184.329507,-5033.400406,-76303.111601
164.509038,-592.164754,-1628.453072,-76762.768900
164.511611,296.082377,-5773.606348,-77375.645298
164.514184,-1036.288319,-4737.318029,-79520.712692
164.516757,-5625.565159,-7994.224174,-76762.768900
164.519330,-4441.235652,-11547.212695,-76456.330700
164.521903,-5033.400406,-8882.471304,-75077.358804
164.524476,-3256.906145,-9474.636058,-76762.768900
164.527049,1332.370696,888.247130,-77375.645298
164.529621,-4145.153275,-592.164754,-77222.426198
164.532194,9770.718434,8438.347739,-77375.645298
164.534767,8142.265362,7254.018232,-75537.016103
164.537340,9474.636058,3849.070898,-75690.235202
164.539913,5477.523971,3256.906145,-76762.768900
164.542486,6365.771101,6957.935855,-76609.549800
164.545059,3552.988522,8438.347739,-79367.493593
164.547632,4293.194464,6661.853478,-77375.645298
164.550205,6217.729913,-2960.823768,-77528.864398
164.552778,6069.688724,3256.906145,-73085.510509
164.555351,3108.864956,-3108.864956,-77835.302597
164.557924,6217.729913,740.205942,-77988.521696
164.560496,2812.782580,2368.659014,-78601.398095
164.563069,4885.359217,3849.070898,-77222.426198
164.565642,5921.647536,740.205942,-78448.178995
164.568215,5329.482782,4441.235652,-75690.235202
164.570788,10214.842000,2812.782580,-78448.178995
164.573361,12879.583391,6957.935855,-77682.083497
164.575934,7994.224174,8142.265362,-76609.549800
164.578507,9326.594869,6809.894666,-76303.111601
164.581080,5329.482782,7402.059420,-74924.139704
164.583653,-3404.947333,-2072.576638,-76915.987999
164.586226,-6513.812290,-7105.977043,-77988.521696
164.588798,-7105.977043,-6661.853478,-77222.426198
164.591371,-2072.576638,-5477.523971,-77528.864398
164.593944,-1184.329507,-16136.489536,-80440.027290
164.596517,2812.782580,-4885.359217,-74158.044206
164.599090,-148.041188,-12139.377449,-77988.521696
164.601663,740.205942,1332.370696,-75996.673402
164.604236,-5477.523971,0.000000,-79367.493593
164.606811,740.205942,3404.947333,-76762.768900
164.609387,-1776.494261,-444.123565,-77528.864398
164.611962,-888.247130,-5921.647536,-76303.111601
164.614538,3256.906145,-1480.411884,-76149.892501
164.617113,-3256.906145,-7254.018232,-80133.589091
164.619689,444.123565,-3701.029710,-77835.302597
164.622264,-3256.906145,-10658.965565,-77222.426198
164.624840,-6365.771101,-5181.441594,-74924.139704
164.627415,-5921.647536,-8142.265362,-76609.549800
164.629991,2220.617826,-2812.782580,-77988.521696
164.632566,-5477.523971,-2072.576638,-77682.083497
164.635142,5329.482782,2516.700203,-77835.302597
164.637717,13027.624579,4145.153275,-78907.836294
164.640293,10955.047942,2516.700203,-75537.016103
164.642868,7846.182985,4441.235652,-76762.768900
164.645444,7846.182985,3849.070898,-76609.549800
164.648019,7550.100608,8734.430116,-78907.836294
164.650595,4589.276840,3849.070898,-78754.617194
164.653170,4737.318029,-1184.329507,-77528.864398
164.655746,7698.141797,-444.123565,-74770.920605
164.658321,1184.329507,-6069.688724,-76915.987999
164.660897,2812.782580,2960.823768,-77375.645298
164.663472,3552.988522,740.205942,-79367.493593
164.666048,6809.894666,1184.329507,-79061.055394
164.668623,2368.659014,4145.153275,-76762.768900
164.671199,5181.441594,2220.617826,-75537.016103
164.673774,10510.924376,5181.441594,-76149.892501
164.676350,9326.594869,5329.482782,-77528.864398
164.678925,10955.047942,6661.853478,-77528.864398
164.681501,6661.853478,3552.988522,-77988.521696
164.684076,9030.512492,5773.606348,-76149.892501
164.686652,-592.164754,-1184.329507,-78141.740796
164.689227,-7846.182985,-5773.606348,-75537.016103
164.691803,-6513.812290,-4885.359217,-76456.330700
164.694378,-3849.070898,-11103.089130,-78754.617194
164.696954,-2368.659014,-8734.430116,-78141.740796
164.699529,-740.205942,-11547.212695,-77835.302597
164.702105,-888.247130,-9178.553681,-76762.768900
164.704680,592.164754,-3256.906145,-76149.892501
164.707256,444.123565,-740.205942,-79061.055394
164.709833,740.205942,-1184.329507,-78601.398095
164.712409,-592.164754,-740.205942,-79673.931792
164.714986,5033.400406,-5773.606348,-76762.768900
164.717563,296.082377,-4737.318029,-75690.235202
164.720140,-1924.535449,-6069.688724,-76303.111601
164.722716,-3849.070898,-7550.100608,-79061.055394
164.725293,-1776.494261,-8734.430116,-78601.398095
164.727870,-7105.977043,-8438.347739,-75996.673402
164.730447,-5181.441594,-6809.894666,-75230.577904
164.733023,-3256.906145,-7402.059420,-77988.521696
164.735600,-3552.988522,-6661.853478,-78754.617194
164.738177,5477.523971,1776.494261,-77682.083497
164.740754,11399.171507,5477.523971,-76915.987999
164.743330,11547.212695,8734.430116,-75383.797003
164.745907,6365.771101,5181.441594,-75996.673402
164.748484,7105.977043,7994.224174,-74924.139704
164.751061,4293.194464,4737.318029,-77988.521696
164.753637,5773.606348,4737.318029,-79214.274493
164.756214,2072.576638,2516.700203,-78448.178995
164.758791,6661.853478,-3849.070898,-77682.083497
164.761367,8438.347739,888.247130,-75077.358804
164.763944,3997.112087,-1924.535449,-76609.549800
164.766521,5625.565159,-444.123565,-77988.521696
164.769098,6069.688724,3849.070898,-77988.521696
164.771674,1924.535449,1924.535449,-77988.521696
164.774251,8438.347739,4885.359217,-75383.797003
164.776828,7105.977043,7698.141797,-74464.482406
164.779405,11843.295072,4441.235652,-77528.864398
164.781981,10214.842000,8290.306550,-78141.740796
164.784558,8290.306550,3108.864956,-76456.330700
164.787135,6957.935855,4293.194464,-77682.083497
164.789712,-444.123565,1036.288319,-76609.549800
164.792288,-5033.400406,-4589.276840,-76915.987999
164.794865,-2220.617826,-6513.812290,-77222.426198
164.797442,-6069.688724,-2664.741391,-75996.673402
164.800019,-1776.494261,-8882.471304,-77988.521696
164.802595,740.205942,-10066.800811,-77222.426198
164.805172,-444.123565,-9622.677246,-75690.235202
164.807749,740.205942,-2072.576638,-75843.454302
164.810326,-3404.947333,-4293.194464,-79061.055394
164.812904,1480.411884,2960.823768,-76303.111601
164.815482,-888.247130,-1924.535449,-76762.768900
164.818059,-1480.411884,1480.411884,-75077.358804
164.820637,296.082377,-6069.688724,-78141.740796
164.823215,-888.247130,-8734.430116,-79214.274493
164.825793,-1628.453072,-6957.935855,-78141.740796
164.828371,-5033.400406,-10214.842000,-78141.740796
164.830949,-6365.771101,-7402.059420,-75077.358804
164.833527,-5773.606348,-9326.594869,-77528.864398
164.836105,-740.205942,-1776.494261,-76303.111601
164.838683,-4885.359217,-6661.853478,-78601.398095
164.841261,6069.688724,3701.029710,-77069.207099
164.843839,11103.089130,6661.853478,-78754.617194
164.846417,14952.160028,9030.512492,-74770.920605
164.848995,4885.359217,5921.647536,-75843.454302
164.851573,6661.853478,6513.812290,-76303.111601
164.854151,3256.906145,6217.729913,-77835.302597
164.856729,3256.906145,5625.565159,-77528.864398
164.859307,4589.276840,-888.247130,-79673.931792
164.861885,7254.018232,-740.205942,-75383.797003
164.864462,1628.453072,-3552.988522,-76303.111601
164.867040,4441.235652,-2368.659014,-77069.207099
164.869618,1480.411884,888.247130,-78294.959896
164.872196,7846.182985,3701.029710,-78754.617194
164.874774,2960.823768,4885.359217,-78907.836294
164.877352,8586.388927,6217.729913,-74924.139704
164.879930,7846.182985,6217.729913,-77375.645298
164.882508,10510.924376,5033.400406,-77375.645298
164.885086,9326.594869,5477.523971,-78294.959896
164.887664,7402.059420,5181.441594,-76762.768900
164.890242,8734.430116,3997.112087,-76762.768900
164.892820,-4293.194464,-3404.947333,-76456.330700
164.895398,-8290.306550,-6069.688724,-76303.111601
164.897976,-5773.606348,-5625.565159,-77835.302597
164.900554,-3997.112087,-8290.306550,-78754.617194
164.903132,-1480.411884,-11695.253884,-79367.493593
164.905710,-592.164754,-9030.512492,-76915.987999
164.908288,2072.576638,-10362.883188,-76762.768900
164.910865,-888.247130,-888.247130,-77375.645298
164.913443,-4293.194464,-2220.617826,-76456.330700
164.915993,3108.864956,3108.864956,-77988.521696
164.918543,444.123565,-1628.453072,-78294.959896
164.921092,3256.906145,-1924.535449,-77988.521696
164.923642,-2220.617826,-5773.606348,-77988.521696
164.926192,0.000000,-4737.318029,-75996.673402
164.928741,-3997.112087,-5921.647536,-78294.959896
164.931291,-5921.647536,-9622.677246,-77222.426198
164.933841,-6217.729913,-9622.677246,-76303.111601
164.936390,-3256.906145,-7994.224174,-76762.768900
164.938940,-1628.453072,-4737.318029,-76609.549800
164.941489,592.164754,-2812.782580,-78141.740796
164.944039,12287.418637,7105.977043,-76149.892501
164.946589,10510.924376,6513.812290,-78141.740796
164.949138,10955.047942,8882.471304,-75077.358804
164.951688,4145.153275,3552.988522,-77375.645298
164.954238,5181.441594,9918.759623,-76609.549800
164.956787,5329.482782,3552.988522,-78141.740796
164.959337,4293.194464,5033.400406,-77988.521696
164.961887,3552.988522,-2812.782580,-77988.521696
164.964436,9918.759623,-4441.235652,-77222.426198
164.966986,5181.441594,3552.988522,-75690.235202
164.969535,3552.988522,-3552.988522,-77222.426198
164.972085,6957.935855,5773.606348,-77375.645298
164.974635,1776.494261,-444.123565,-78141.740796
164.977184,7846.182985,4885.359217,-75690.235202
164.979734,7550.100608,3701.029710,-76609.549800
164.982284,10955.047942,6365.771101,-76609.549800
164.984833,10807.006753,6069.688724,-77835.302597
164.987383,5773.606348,6809.894666,-76762.768900
164.989933,6365.771101,8882.471304,-75230.577904
164.992482,-2220.617826,-1332.370696,-77375.645298
164.995032,-7994.224174,-5921.647536,-76609.549800
164.997581,-6217.729913,-10362.883188,-78141.740796
165.000131,-1480.411884,-8438.347739,-77222.426198
165.002681,-3404.947333,-10955.047942,-78448.178995
165.005230,1184.329507,-9326.594869,-77069.207099
165.007780,-592.164754,-11843.295072,-76915.987999
165.010330,444.123565,888.247130,-73698.386908
165.012879,-3404.947333,-2368.659014,-77375.645298
165.015429,-592.164754,888.247130,-77682.083497
165.017985,2368.659014,1480.411884,-76456.330700
165.020540,296.082377,-592.164754,-74617.701505
165.023096,148.041188,-2960.823768,-75537.016103
165.025652,-1184.329507,-6957.935855,-78907.836294
165.028208,-2812.782580,-5477.523971,-79061.055394
165.030763,-7105.977043,-7846.182985,-76149.892501
165.033319,-5773.606348,-9326.594869,-75690.235202
165.035875,-3849.070898,-6365.771101,-77375.645298
165.038431,-2516.700203,-7105.977043,-77682.083497
165.040986,2368.659014,-2220.617826,-78448.178995
165.043542,13175.665768,6217.729913,-77375.645298
165.046098,10955.047942,7550.100608,-76609.549800
165.048653,10066.800811,9178.553681,-75996.673402
165.051209,5033.400406,6217.729913,-75383.797003
165.053765,3108.864956,6217.729913,-77682.083497
165.056321,3552.988522,8290.306550,-76915.987999
165.058876,3404.947333,1184.329507,-78754.617194
165.061432,5921.647536,-1184.329507,-76609.549800
165.063988,2664.741391,-2368.659014,-77222.426198
165.066544,5477.523971,-2368.659014,-77069.207099
165.069099,5181.441594,444.123565,-77835.302597
165.071655,5477.523971,1332.370696,-76762.768900
165.074211,3256.906145,4293.194464,-78601.398095
165.076767,9178.553681,7846.182985,-75690.235202
165.079322,10955.047942,7846.182985,-74924.139704
165.081878,10362.883188,8438.347739,-77069.207099
165.084434,7698.141797,7402.059420,-76915.987999
165.086989,6217.729913,6957.935855,-77069.207099
165.089545,4293.194464,2220.617826,-77835.302597
165.092101,-5033.400406,-7846.182985,-78294.959896
165.094657,-6513.812290,-6957.935855,-77375.645298
165.097212,-4589.276840,-13323.706956,-78141.740796
165.099768,1480.411884,-7254.018232,-77375.645298
165.102324,-3997.112087,-11991.336260,-77528.864398
165.104880,1332.370696,-7550.100608,-76456.330700
165.107435,1036.288319,-3256.906145,-74617.701505
165.109991,-5181.441594,-2812.782580,-77682.083497
165.112547,2516.700203,-1332.370696,-78141.740796
165.115103,-1184.329507,1776.494261,-78448.178995
165.117658,4589.276840,-2516.700203,-77835.302597
165.120192,-740.205942,-1332.370696,-76149.892501
165.122724,-2368.659014,-5625.565159,-76456.330700
165.125255,-1184.329507,-8438.347739,-78601.398095
165.127787,-5033.400406,-8586.388927,-77375.645298
165.130319,-5329.482782,-10214.842000,-77835.302597
165.132851,-4589.276840,-5477.523971,-75537.016103
165.135383,-4737.318029,-6957.935855,-77835.302597
165.137915,-1184.329507,-4145.153275,-77222.426198
165.140447,6809.894666,4441.235652,-77528.864398
165.142978,12879.583391,8290.306550,-76915.987999
165.145510,10362.883188,9326.594869,-77222.426198
165.148042,6661.853478,8290.306550,-75690.235202
165.150574,9326.594869,5921.647536,-76456.330700
165.153106,3849.070898,7550.100608,-77222.426198
165.155638,3552.988522,1184.329507,-78754.617194
165.158169,9918.759623,-2220.617826,-78601.398095
165.160701,2516.700203,-2960.823768,-75537.016103
165.163233,5181.441594,-4145.153275,-77375.645298
165.165765,2812.782580,888.247130,-75996.673402
165.168297,3552.988522,1480.411884,-76609.549800
165.170829,7105.977043,740.205942,-77835.302597
165.173360,5921.647536,6661.853478,-77222.426198
165.175892,8142.265362,4885.359217,-76456.330700
165.178424,12435.459826,8586.388927,-76915.987999
165.180956,8734.430116,3404.947333,-77222.426198
165.183488,7402.059420,3404.947333,-77375.645298
165.186020,6957.935855,5477.523971,-76149.892501
165.188552,-1184.329507,-296.082377,-77069.207099
165.191083,-5773.606348,-4145.153275,-77528.864398
165.193615,-5773.606348,-9030.512492,-77682.083497
165.196147,-2072.576638,-6365.771101,-76609.549800
165.198679,-3108.864956,-10510.924376,-76456.330700
165.201211,-296.082377,-12731.542202,-77069.207099
165.203743,3849.070898,-9474.636058,-77222.426198
165.206274,740.205942,-3108.864956,-76303.111601
165.208806,148.041188,-1036.288319,-77988.521696
165.211338,-1628.453072,-2812.782580,-78294.959896
165.213870,-296.082377,888.247130,-76149.892501
165.216402,888.247130,-4737.318029,-77988.521696
165.218934,1924.535449,-148.041188,-74617.701505
165.221475,-1184.329507,-8882.471304,-78754.617194
165.224017,-4145.153275,-7402.059420,-78448.178995
165.226559,-8438.347739,-11251.130318,-76609.549800
165.229100,-4145.153275,-9178.553681,-75996.673402
165.231642,-1480.411884,-7402.059420,-77528.864398
165.234184,-3552.988522,-3256.906145,-77528.864398
165.236725,2960.823768,1036.288319,-76303.111601
165.239267,15100.201217,7698.141797,-77528.864398
165.241809,10066.800811,9030.512492,-76915.987999
165.244350,9030.512492,6957.935855,-76456.330700
165.246892,6069.688724,4145.153275,-76149.892501
165.249434,4293.194464,4737.318029,-78601.398095
165.251975,4145.153275,3552.988522,-77988.521696
165.254517,2960.823768,2368.659014,-78754.617194
165.257059,8438.347739,-2072.576638,-76762.768900
165.259600,3108.864956,-2072.576638,-77528.864398
165.262142,3404.947333,3849.070898,-73698.386908
165.264684,1924.535449,592.164754,-77069.207099
165.267225,7105.977043,7698.141797,-76915.987999
165.269767,3404.947333,2516.700203,-78141.740796
165.272309,12731.542202,7402.059420,-75537.016103
165.274850,7402.059420,4737.318029,-76915.987999
165.277392,9326.594869,888.247130,-77988.521696
165.279934,10510.924376,2220.617826,-78448.178995
165.282475,4441.235652,5329.482782,-76456.330700
165.285017,-2368.659014,1628.453072,-76762.768900
165.287559,-8290.306550,-6513.812290,-77835.302597
165.290100,-6661.853478,-7698.141797,-77375.645298
165.292642,-2960.823768,-9770.718434,-78141.740796
165.295184,-1036.288319,-7105.977043,-76149.892501
165.297725,592.164754,-9918.759623,-77069.207099
165.300267,3404.947333,-9178.553681,-77682.083497
165.302809,-4441.235652,-1036.288319,-76303.111601
165.305350,-7698.141797,-1036.288319,-77375.645298
165.307892,4589.276840,2072.576638,-77528.864398
165.310434,-1628.453072,-1628.453072,-78754.617194
165.312975,2960.823768,-1332.370696,-75230.577904
165.315517,-740.205942,-3108.864956,-76303.111601
165.318059,444.123565,-10362.883188,-77988.521696
165.320600,-2960.823768,-11547.212695,-79061.055394
165.323121,-9918.759623,-8734.430116,-76149.892501
165.325642,-5921.647536,-10214.842000,-76456.330700
165.328163,-1480.411884,-3849.070898,-76762.768900
165.330684,-5329.482782,-9622.677246,-77222.426198
165.333205,7254.018232,2220.617826,-76303.111601
165.335726,14359.995275,7994.224174,-77835.302597
165.338247,6809.894666,1480.411884,-77988.521696
165.340768,11695.253884,8290.306550,-75996.673402
165.343289,5181.441594,7698.141797,-75690.235202
165.345810,5773.606348,4737.318029,-77988.521696
165.348331,5033.400406,2220.617826,-80440.027290
165.350852,6957.935855,1036.288319,-77069.207099
165.353373,4145.153275,-5181.441594,-77988.521696
165.355894,5329.482782,1480.411884,-74158.044206
165.358415,1776.494261,-1480.411884,-78448.178995
165.360936,5033.400406,592.164754,-77528.864398
165.363457,6809.894666,4145.153275,-77069.207099
165.365977,6661.853478,6217.729913,-77069.207099
165.368498,10955.047942,6957.935855,-76303.111601
165.371019,10214.842000,7402.059420,-75537.016103
165.373540,10362.883188,3997.112087,-77222.426198
165.376061,9178.553681,888.247130,-78294.959896
165.378582,4885.359217,7846.182985,-76149.892501
165.381103,-5033.400406,-3849.070898,-78754.617194
165.383624,-8882.471304,-5181.441594,-77069.207099
165.386145,-4737.318029,-7698.141797,-78141.740796
165.388666,-1776.494261,-10362.883188,-77222.426198
165.391187,0.000000,-8882.471304,-76456.330700
165.393708,-1332.370696,-9326.594869,-77375.645298
165.396229,3701.029710,-5921.647536,-76762.768900
165.398750,-5625.565159,2072.576638,-76149.892501
165.401271,-3404.947333,2368.659014,-76149.892501
165.403792,2516.700203,-444.123565,-77222.426198
165.406313,-3256.906145,-1184.329507,-77069.207099
165.408834,-592.164754,-5625.565159,-76915.987999
165.411355,740.205942,-4145.153275,-77835.302597
165.413876,-2812.782580,-7994.224174,-78141.740796
165.416397,-7105.977043,-10955.047942,-77682.083497
165.418917,-2960.823768,-10510.924376,-76303.111601
165.421438,-5477.523971,-4293.194464,-76303.111601
165.423971,-1036.288319,-6217.729913,-78294.959896
165.426505,-148.041188,-2516.700203,-78141.740796
165.429038,8586.388927,6661.853478,-75537.016103
165.431571,12731.542202,6809.894666,-76915.987999
165.434104,10955.047942,10362.883188,-75690.235202
165.436637,3849.070898,5773.606348,-76456.330700
165.439170,10214.842000,8734.430116,-75690.235202
165.441703,1628.453072,2812.782580,-77835.302597
165.444236,8586.388927,3108.864956,-76762.768900
165.446769,11843.295072,888.247130,-77222.426198
165.449302,1036.288319,-740.205942,-77222.426198
165.451835,2960.823768,1924.535449,-75383.797003
165.454368,2072.576638,-148.041188,-78448.178995
165.456901,5033.400406,3108.864956,-76762.768900
165.459434,8142.265362,1924.535449,-79980.369991
165.461967,7994.224174,8290.306550,-76303.111601
165.464500,12287.418637,5625.565159,-77222.426198
165.467033,11843.295072,7402.059420,-76915.987999
165.469566,8142.265362,444.123565,-76915.987999
165.472099,8882.471304,8882.471304,-75690.235202
165.474633,-6513.812290,-444.123565,-76762.768900
165.477166,-9918.759623,-6513.812290,-77988.521696
165.479699,-5181.441594,-8438.347739,-77682.083497
165.482232,-5033.400406,-9178.553681,-77222.426198
165.484765,-592.164754,-10510.924376,-76149.892501
165.487298,2220.617826,-10214.842000,-77222.426198
165.489831,1628.453072,-5625.565159,-77375.645298
165.492364,3256.906145,-2220.617826,-77835.302597
165.494897,-3849.070898,-3108.864956,-78448.178995
165.497430,592.164754,148.041188,-76915.987999
165.499963,1036.288319,-2664.741391,-76456.330700
165.502496,-1184.329507,-3849.070898,-77222.426198
165.505039,-296.082377,-4441.235652,-75843.454302
165.507582,-4145.153275,-10658.965565,-78141.740796
165.510125,-4885.359217,-9622.677246,-77528.864398
165.512668,-7994.224174,-9326.594869,-76149.892501
165.515211,-4589.276840,-7994.224174,-75996.673402
165.517754,-1924.535449,-6217.729913,-77988.521696
165.520297,0.000000,-5921.647536,-77988.521696
165.522840,10510.924376,8882.471304,-76915.987999
165.525383,10362.883188,8142.265362,-75537.016103
165.527926,12583.501014,11843.295072,-75843.454302
165.530469,4145.153275,5033.400406,-75690.235202
165.533012,6217.729913,8586.388927,-76149.892501
165.535555,1776.494261,7550.100608,-77069.207099
165.538098,4145.153275,3552.988522,-77835.302597
165.540641,8142.265362,-1924.535449,-77682.083497
165.543184,3849.070898,1332.370696,-76915.987999
165.545727,4737.318029,148.041188,-77069.207099
165.548270,2664.741391,888.247130,-77528.864398
165.550813,3701.029710,3256.906145,-75077.358804
165.553356,7105.977043,2664.741391,-78448.178995
165.555899,7698.141797,10807.006753,-75230.577904
165.558442,13027.624579,4885.359217,-77528.864398
165.560985,13619.789333,7402.059420,-76609.549800
165.563528,4441.235652,-1480.411884,-76915.987999
165.566071,12287.418637,6957.935855,-75996.673402
165.568614,-9622.677246,-1776.494261,-77528.864398
165.571157,-4589.276840,-5181.441594,-77682.083497
165.573700,-8734.430116,-7402.059420,-78907.836294
165.576243,-3849.070898,-10214.842000,-76456.330700
165.578786,-1776.494261,-12879.583391,-79061.055394
165.581329,296.082377,-10510.924376,-74617.701505
165.583872,1924.535449,-7994.224174,-77375.645298
165.586415,-2072.576638,-1184.329507,-76915.987999
165.588958,-3404.947333,-592.164754,-77222.426198
165.591501,3108.864956,-296.082377,-77375.645298
165.594044,-5033.400406,-3701.029710,-77835.302597
165.596587,592.164754,-3552.988522,-76456.330700
165.599130,-444.123565,-2960.823768,-78141.740796
165.601673,-3108.864956,-8586.388927,-77375.645298
165.604216,-5921.647536,-8882.471304,-79673.931792
165.606767,-9178.553681,-11695.253884,-76609.549800
165.609318,-3552.988522,-9030.512492,-76915.987999
165.611869,-1184.329507,-3404.947333,-76915.987999
165.614420,-1036.288319,-6809.894666,-78448.178995
165.616971,15988.448347,9030.512492,-77682.083497
165.619522,5921.647536,10658.965565,-75077.358804
165.622073,11843.295072,7550.100608,-77528.864398
165.624624,5773.606348,5773.606348,-78754.617194
165.627175,4589.276840,7994.224174,-75690.235202
165.629726,4737.318029,2812.782580,-80593.246390
165.632277,3256.906145,6069.688724,-76303.111601
165.634828,2664.741391,-2368.659014,-78754.617194
165.637379,6513.812290,7846.182985,-75383.797003
165.639930,444.123565,-2220.617826,-77835.302597
165.642481,8290.306550,2368.659014,-76762.768900
165.645032,1036.288319,3256.906145,-77222.426198
165.647583,9030.512492,7846.182985,-77682.083497
165.650134,11843.295072,7846.182985,-77528.864398
165.652685,8142.265362,9474.636058,-75843.454302
165.655236,10658.965565,4737.318029,-77222.426198
165.657787,9770.718434,3849.070898,-76456.330700
165.660338,4145.153275,2664.741391,-76149.892501
165.662889,-3849.070898,-5773.606348,-77835.302597
165.665441,-12139.377449,-6365.771101,-77682.083497
165.667992,-3997.112087,-12879.583391,-79214.274493
165.670543,444.123565,-7105.977043,-78448.178995
165.673094,-3997.112087,-13471.748144,-77222.426198
165.675645,3552.988522,-7994.224174,-76149.892501
165.678196,-148.041188,-4589.276840,-77375.645298
165.680747,-1776.494261,-3552.988522,-78907.836294
165.683298,-1776.494261,1924.535449,-75996.673402
165.685849,-2220.617826,-2072.576638,-77222.426198
165.688400,2072.576638,-592.164754,-76915.987999
165.690951,444.123565,-3701.029710,-75843.454302
165.693502,-1332.370696,-4441.235652,-76915.987999
165.696053,-2812.782580,-12879.583391,-79367.493593
165.698604,-7105.977043,-7402.059420,-77682.083497
165.701155,-8882.471304,-11399.171507,-77069.207099
165.703706,-1184.329507,-4737.318029,-77375.645298
165.706257,-4293.194464,-3701.029710,-78294.959896
165.708815,7846.182985,2812.782580,-77528.864398
165.711373,13323.706956,9178.553681,-77069.207099
165.713931,10362.883188,8586.388927,-75077.358804
165.716489,8142.265362,8438.347739,-76915.987999
165.719047,8142.265362,6069.688724,-77222.426198
165.721605,5033.400406,5625.565159,-78601.398095
165.724163,5625.565159,1776.494261,-78754.617194
165.726721,2664.741391,444.123565,-77528.864398
165.729279,4589.276840,1332.370696,-76609.549800
165.731837,2812.782580,2220.617826,-76303.111601
165.734395,4145.153275,-888.247130,-77375.645298
165.736953,2072.576638,2812.782580,-77375.645298
165.739511,8734.430116,2960.823768,-77835.302597
165.742069,8142.265362,9622.677246,-76149.892501
165.744627,10510.924376,8586.388927,-76915.987999
165.747185,11547.212695,9030.512492,-77375.645298
165.749743,10807.006753,3849.070898,-76762.768900
165.752302,8586.388927,3404.947333,-76609.549800
165.754860,-1924.535449,3108.864956,-75537.016103
165.757418,-9326.594869,-6217.729913,-77682.083497
165.759976,-5477.523971,-8734.430116,-79673.931792
165.762534,-3997.112087,-8438.347739,-77375.645298
165.765092,-1776.494261,-12139.377449,-78294.959896
165.767650,148.041188,-9622.677246,-75843.454302
165.770208,-444.123565,-9178.553681,-77835.302597
165.772766,5625.565159,-148.041188,-76303.111601
165.775324,-5773.606348,-592.164754,-78754.617194
165.777882,444.123565,148.041188,-76303.111601
165.780440,-3108.864956,1628.453072,-77222.426198
165.782998,3404.947333,-3997.112087,-77835.302597
165.785556,-1332.370696,-3849.070898,-77682.083497
165.788114,-3108.864956,-7994.224174,-77682.083497
165.790672,-6661.853478,-11251.130318,-77988.521696
165.793230,-6513.812290,-7994.224174,-77069.207099
165.795788,-6513.812290,-8438.347739,-77222.426198
165.798346,148.041188,-5033.400406,-77682.083497
165.800904,3256.906145,-2220.617826,-77528.864398
165.803462,15100.201217,10214.842000,-76149.892501
165.806020,10214.842000,11103.089130,-75537.016103
165.808578,7994.224174,11103.089130,-75077.358804
165.811142,3997.112087,5625.565159,-77069.207099
165.813706,4885.359217,5773.606348,-76762.768900
165.816270,5773.606348,3256.906145,-76762.768900
165.818834,2664.741391,-1036.288319,-79367.493593
165.821398,8586.388927,-6217.729913,-77835.302597
165.823962,1776.494261,4589.276840,-76915.987999
165.826526,5773.606348,-1480.411884,-76303.111601
165.829090,5773.606348,5477.523971,-77375.645298
165.831654,3701.029710,1184.329507,-77528.864398
165.834218,9918.759623,7550.100608,-78141.740796
165.836782,7846.182985,10362.883188,-75843.454302
165.839346,11547.212695,3256.906145,-78294.959896
165.841910,10955.047942,2664.741391,-77682.083497
165.844474,7402.059420,4145.153275,-76149.892501
165.847038,-1184.329507,-148.041188,-76762.768900
165.849602,-8142.265362,-1184.329507,-77069.207099
165.852166,-10510.924376,-7846.182985,-76303.111601
165.854730,-2072.576638,-8882.471304,-78907.836294
165.857294,-3997.112087,-11399.171507,-77222.426198
165.859858,-1628.453072,-9326.594869,-75537.016103
165.862422,1924.535449,-7698.141797,-77069.207099
165.864986,-4885.359217,2220.617826,-74770.920605
165.867550,-1924.535449,296.082377,-78754.617194
165.870114,1628.453072,-148.041188,-77528.864398
165.872678,1332.370696,-3701.029710,-75230.577904
165.875242,444.123565,-3256.906145,-76456.330700
165.877806,-1036.288319,-7846.182985,-78448.178995
165.880370,-3701.029710,-11103.089130,-77682.083497
165.882934,-7105.977043,-13027.624579,-77682.083497
165.885498,-7846.182985,-11695.253884,-77069.207099
165.888062,-2664.741391,-5477.523971,-77528.864398
165.890626,-5033.400406,-4293.194464,-77069.207099
165.893190,9474.636058,3849.070898,-77069.207099
165.895754,14063.912898,9918.759623,-77222.426198
165.898318,11103.089130,5477.523971,-76915.987999
165.900882,8142.265362,12287.418637,-76609.549800
165.903446,2220.617826,6661.853478,-75843.454302
165.906010,2960.823768,5181.441594,-78754.617194
165.908574,4885.359217,1480.411884,-76149.892501
165.911138,5329.482782,-4145.153275,-77375.645298
165.913706,6809.894666,-2220.617826,-77222.426198
165.916275,740.205942,148.041188,-77222.426198
165.918843,6365.771101,740.205942,-76762.768900
165.921411,2516.700203,2516.700203,-77835.302597
165.923979,7254.018232,5773.606348,-75996.673402
165.926548,7994.224174,7550.100608,-77069.207099
165.929116,12583.501014,8586.388927,-76303.111601
165.931684,11547.212695,7846.182985,-77222.426198
165.934252,11103.089130,3256.906145,-75690.235202
165.936820,3108.864956,3404.947333,-75383.797003
165.939389,-8734.430116,-7254.018232,-77222.426198
165.941957,-9474.636058,-7846.182985,-77835.302597
165.944525,-7105.977043,-10510.924376,-79061.055394
165.947093,-2516.700203,-7994.224174,-78294.959896
165.949662,-2664.741391,-10066.800811,-76915.987999
165.952230,1184.329507,-9030.512492,-76303.111601
165.954798,1628.453072,-7550.100608,-76456.330700
165.957366,296.082377,1924.535449,-76456.330700
165.959935,888.247130,-1924.535449,-78601.398095
165.962503,-1480.411884,-740.205942,-77682.083497
165.965071,592.164754,-2220.617826,-77835.302597
165.967639,-148.041188,-4145.153275,-76762.768900
165.970207,-148.041188,-6513.812290,-77069.207099
165.972776,-6809.894666,-13027.624579,-77682.083497
165.975344,-7105.977043,-11399.171507,-77528.864398
165.977912,-4885.359217,-9918.759623,-77222.426198
165.980480,-5625.565159,-4293.194464,-76762.768900
165.983049,-3849.070898,-7698.141797,-78907.836294
165.985617,15840.407159,3552.988522,-78448.178995
165.988185,13767.830521,11103.089130,-76149.892501
165.990753,11103.089130,9326.594869,-75690.235202
165.993322,5921.647536,8586.388927,-77375.645298
165.995890,5033.400406,9030.512492,-76915.987999
165.998458,3701.029710,6365.771101,-76303.111601
166.001026,5921.647536,3404.947333,-77528.864398
166.003594,3256.906145,-8734.430116,-79520.712692
166.006163,7994.224174,888.247130,-75996.673402
166.008731,-740.205942,1924.535449,-76762.768900
166.011299,5181.441594,-740.205942,-77375.645298
166.013867,3256.906145,5477.523971,-76149.892501
166.016439,2960.823768,4441.235652,-77069.207099
166.019011,11843.295072,7254.018232,-76456.330700
166.021583,9918.759623,7254.018232,-78141.740796
166.024154,12435.459826,1184.329507,-78141.740796
166.026726,11695.253884,3404.947333,-78141.740796
166.029298,-1776.494261,2220.617826,-75383.797003
166.031869,-11399.171507,-5477.523971,-76762.768900
166.034441,-7402.059420,-6217.729913,-76762.768900
166.037013,-6809.894666,-11399.171507,-79367.493593
166.039584,-296.082377,-10955.047942,-78448.178995
166.042156,-1184.329507,-12583.501014,-77222.426198
166.044728,4293.194464,-9622.677246,-77222.426198
166.047299,1036.288319,-2072.576638,-77375.645298
166.049871,-5773.606348,1036.288319,-76149.892501
166.052443,3108.864956,888.247130,-76915.987999
166.055015,-1036.288319,-7846.182985,-80899.684589
166.057586,-1332.370696,-1184.329507,-76149.892501
166.060158,-2220.617826,-5329.482782,-75383.797003
166.062730,1332.370696,-9622.677246,-76609.549800
166.065301,-9770.718434,-11991.336260,-78141.740796
